Millis,Quat_W,Quat_X,Quat_Y,Quat_Z,Acc_X,Acc_Y,Acc_Z
2276745,1.00,0.00,-0.00,0.00,0.63,-9.73,-1.11
2276778,1.00,0.01,-0.01,0.00,0.64,-9.83,-1.04
2276810,1.00,0.01,-0.01,0.00,0.66,-9.86,-0.92
2276843,1.00,0.02,-0.01,0.00,0.74,-9.71,-0.87
2276876,1.00,0.02,-0.01,-0.00,0.68,-9.98,-0.86
2276909,1.00,0.02,-0.01,-0.00,0.80,-9.88,-0.87
2276942,1.00,0.02,-0.01,-0.01,0.76,-9.71,-0.89
2276975,1.00,0.02,-0.02,-0.01,0.75,-10.03,-0.91
2277008,1.00,0.03,-0.02,-0.02,1.01,-9.85,-0.90
2277041,1.00,0.03,-0.02,-0.02,1.12,-9.72,-1.00
2277074,1.00,0.03,-0.02,-0.03,1.36,-9.95,-1.01
2277107,1.00,0.03,-0.02,-0.04,1.38,-9.96,-1.10
2277140,1.00,0.03,-0.02,-0.04,1.36,-9.63,-1.19
2277173,1.00,0.03,-0.02,-0.05,1.33,-9.94,-1.22
2277206,1.00,0.03,-0.02,-0.05,1.54,-9.75,-1.14
2277239,1.00,0.03,-0.02,-0.05,1.75,-9.82,-1.11
2277271,1.00,0.03,-0.02,-0.05,1.73,-9.88,-1.22
2277303,1.00,0.03,-0.02,-0.06,1.90,-9.72,-1.25
2277336,1.00,0.03,-0.02,-0.06,1.95,-10.17,-1.30
2277369,1.00,0.03,-0.02,-0.06,2.40,-9.89,-1.24
2277402,1.00,0.03,-0.02,-0.06,2.50,-9.72,-1.20
2277435,1.00,0.03,-0.02,-0.06,2.50,-9.69,-1.13
2277468,1.00,0.03,-0.02,-0.06,2.57,-9.61,-1.04
2277501,1.00,0.03,-0.03,-0.07,2.55,-9.55,-0.97
2277533,1.00,0.03,-0.03,-0.07,2.12,-9.46,-1.13
2277565,1.00,0.03,-0.03,-0.07,1.69,-9.52,-1.29
2277598,1.00,0.03,-0.03,-0.07,1.60,-9.93,-1.33
2277631,1.00,0.03,-0.04,-0.06,1.61,-9.91,-1.37
2277664,1.00,0.03,-0.04,-0.06,2.08,-9.94,-1.40
2277697,1.00,0.03,-0.04,-0.06,2.23,-9.94,-1.42
2277730,1.00,0.03,-0.04,-0.05,2.27,-9.83,-1.43
2277763,1.00,0.03,-0.04,-0.05,2.36,-9.88,-1.29
2277795,1.00,0.03,-0.04,-0.05,2.45,-9.77,-1.17
2277827,1.00,0.04,-0.04,-0.05,2.66,-9.56,-1.11
2277859,1.00,0.04,-0.05,-0.05,2.57,-9.67,-1.12
2277892,1.00,0.04,-0.05,-0.04,2.57,-9.61,-1.08
2277924,1.00,0.04,-0.06,-0.04,2.51,-9.57,-1.13
2277957,1.00,0.04,-0.06,-0.04,2.13,-9.67,-1.41
2277990,1.00,0.04,-0.07,-0.04,1.44,-9.72,-1.42
2278023,1.00,0.04,-0.08,-0.03,1.67,-9.61,-1.26
2278055,1.00,0.05,-0.08,-0.02,1.61,-9.61,-1.33
2278087,1.00,0.05,-0.08,-0.02,1.51,-9.85,-1.42
2278120,0.99,0.05,-0.09,-0.01,1.68,-9.99,-1.43
2278153,0.99,0.06,-0.09,-0.01,1.66,-10.04,-1.34
2278186,0.99,0.06,-0.09,-0.00,1.69,-9.87,-1.24
2278219,0.99,0.06,-0.09,0.00,1.69,-9.87,-1.12
2278252,0.99,0.06,-0.09,0.00,1.61,-9.70,-1.09
2278285,0.99,0.06,-0.08,0.01,1.33,-9.57,-1.18
2278317,0.99,0.06,-0.08,0.01,1.23,-9.72,-1.27
2278349,0.99,0.06,-0.08,0.01,1.10,-10.05,-1.29
2278382,1.00,0.06,-0.07,0.02,1.39,-9.99,-1.29
2278415,1.00,0.06,-0.07,0.02,1.33,-10.06,-1.17
2278448,1.00,0.06,-0.07,0.02,0.74,-9.63,-0.98
2278481,1.00,0.06,-0.07,0.02,0.54,-9.25,-0.93
2278514,1.00,0.06,-0.06,0.03,0.58,-9.06,-1.18
2278547,1.00,0.06,-0.06,0.03,0.80,-9.11,-1.57
2278579,1.00,0.05,-0.06,0.04,1.28,-9.99,-1.82
2278611,1.00,0.05,-0.05,0.04,1.84,-9.73,-1.97
2278644,1.00,0.05,-0.04,0.05,2.15,-10.01,-1.97
2278677,1.00,0.05,-0.04,0.05,2.36,-9.95,-1.86
2278710,1.00,0.05,-0.03,0.06,2.24,-9.93,-1.73
2278743,1.00,0.06,-0.03,0.07,2.14,-9.61,-1.51
2278776,1.00,0.06,-0.03,0.07,2.24,-9.49,-1.43
2278809,0.99,0.06,-0.03,0.08,2.65,-9.23,-1.45
2278842,0.99,0.06,-0.03,0.09,2.69,-9.69,-1.52
2278875,0.99,0.06,-0.03,0.09,2.83,-9.87,-1.50
2278908,0.99,0.06,-0.04,0.10,2.54,-9.66,-1.44
2278941,0.99,0.07,-0.04,0.10,2.36,-9.72,-1.47
2278974,0.99,0.07,-0.04,0.10,2.29,-9.65,-1.53
2279007,0.99,0.07,-0.04,0.10,2.32,-9.78,-1.61
2279040,0.99,0.07,-0.04,0.09,2.16,-10.02,-1.56
2279073,0.99,0.07,-0.05,0.09,2.31,-9.56,-1.48
2279106,0.99,0.08,-0.05,0.09,2.34,-9.59,-1.54
2279139,0.99,0.08,-0.05,0.09,2.18,-10.16,-1.59
2279172,0.99,0.08,-0.06,0.09,2.32,-9.62,-1.49
2279205,0.99,0.08,-0.06,0.09,2.29,-9.66,-1.36
2279238,0.99,0.08,-0.06,0.09,1.96,-9.91,-1.20
2279271,0.99,0.08,-0.07,0.09,1.92,-9.40,-1.09
2279304,0.99,0.08,-0.07,0.09,2.12,-8.73,-1.36
2279337,0.99,0.08,-0.07,0.09,2.21,-9.23,-1.52
2279370,0.99,0.08,-0.07,0.09,1.83,-10.58,-1.45
2279403,0.99,0.08,-0.07,0.09,2.01,-9.64,-1.24
2279436,0.99,0.08,-0.07,0.09,1.91,-9.29,-1.38
2279469,0.99,0.08,-0.07,0.10,2.15,-9.39,-1.54
2279502,0.99,0.08,-0.07,0.10,2.56,-9.74,-1.69
2279535,0.99,0.08,-0.07,0.11,2.86,-9.92,-1.95
2279568,0.99,0.08,-0.09,0.11,2.68,-10.16,-2.13
2279601,0.98,0.09,-0.10,0.11,2.66,-10.34,-2.23
2279633,0.98,0.10,-0.13,0.11,2.64,-10.40,-2.12
2279665,0.97,0.12,-0.17,0.11,1.82,-10.23,-1.99
2279698,0.97,0.13,-0.20,0.11,1.04,-10.12,-1.39
2279731,0.96,0.14,-0.22,0.11,-0.80,-9.60,-0.89
2279764,0.96,0.14,-0.22,0.11,-2.13,-8.99,-0.61
2279797,0.96,0.14,-0.21,0.11,-1.39,-7.74,-0.32
2279830,0.97,0.12,-0.16,0.10,-0.56,-8.99,-0.14
2279863,0.99,0.10,-0.09,0.10,-1.04,-9.72,-0.54
2279895,0.99,0.08,-0.01,0.11,-0.70,-7.70,-1.09
2279927,0.99,0.06,0.03,0.12,3.80,-8.44,-1.86
2279960,0.99,0.05,0.05,0.14,7.66,-9.97,-3.57
2279993,0.99,0.06,0.03,0.14,7.05,-10.52,-3.07
2280025,0.99,0.08,-0.01,0.14,5.60,-10.48,-3.08
2280058,0.98,0.11,-0.06,0.14,4.43,-12.10,-2.87
2280091,0.97,0.15,-0.12,0.12,4.10,-8.15,-2.26
2282004,0.97,0.15,-0.13,0.12,8.65,-4.44,-2.20
2282036,0.97,0.15,-0.13,0.12,8.75,-4.32,-2.17
2282068,0.97,0.15,-0.13,0.13,8.77,-4.32,-2.14
2282101,0.97,0.15,-0.13,0.13,8.76,-4.28,-2.14
2282134,0.97,0.15,-0.13,0.13,8.76,-4.20,-2.14
2282167,0.97,0.15,-0.13,0.13,8.79,-4.11,-2.12
2282200,0.97,0.15,-0.13,0.13,8.82,-4.17,-2.13
2282233,0.97,0.15,-0.13,0.13,8.84,-4.22,-2.17
2282266,0.97,0.15,-0.14,0.13,8.93,-4.14,-2.20
2282298,0.97,0.15,-0.14,0.13,8.95,-4.12,-2.17
2282331,0.97,0.15,-0.14,0.13,8.88,-4.08,-2.16
2282364,0.97,0.16,-0.14,0.13,8.91,-4.10,-2.16
2282397,0.97,0.16,-0.14,0.13,8.92,-4.06,-2.18
2282430,0.97,0.16,-0.15,0.13,8.91,-4.16,-2.16
2282463,0.97,0.16,-0.15,0.13,8.87,-4.02,-2.15
2282496,0.97,0.16,-0.15,0.13,8.93,-3.97,-2.11
2282529,0.97,0.16,-0.16,0.13,8.87,-4.08,-2.12
2282561,0.97,0.16,-0.16,0.14,8.86,-4.03,-2.16
2282593,0.96,0.16,-0.16,0.14,8.92,-4.06,-2.11
2282626,0.96,0.16,-0.16,0.14,8.88,-3.99,-2.11
2282659,0.96,0.16,-0.17,0.14,8.81,-4.02,-2.15
2282692,0.96,0.16,-0.17,0.14,8.83,-4.08,-2.12
2282725,0.96,0.16,-0.17,0.14,8.92,-4.01,-2.11
2282758,0.96,0.16,-0.18,0.14,8.90,-4.04,-2.10
2282790,0.96,0.16,-0.18,0.14,8.90,-4.04,-2.13
2282822,0.96,0.16,-0.18,0.14,8.93,-3.99,-2.11
2282854,0.96,0.16,-0.18,0.14,8.92,-4.00,-2.09
2282887,0.96,0.16,-0.19,0.14,8.93,-4.02,-2.11
2282920,0.96,0.16,-0.19,0.14,8.90,-4.05,-2.13
2282953,0.96,0.16,-0.19,0.14,8.84,-4.07,-2.13
2282986,0.96,0.16,-0.20,0.14,8.89,-4.02,-2.16
2283019,0.96,0.16,-0.20,0.14,8.92,-4.04,-2.14
2283052,0.95,0.16,-0.20,0.14,8.93,-4.08,-2.12
2283084,0.95,0.17,-0.21,0.14,8.92,-4.06,-2.12
2283117,0.95,0.17,-0.21,0.14,8.88,-4.08,-2.12
2283150,0.95,0.17,-0.22,0.14,8.82,-4.04,-2.11
2283183,0.95,0.17,-0.22,0.14,8.83,-4.11,-2.12
2283216,0.95,0.17,-0.22,0.14,8.87,-4.14,-2.12
2283249,0.95,0.17,-0.23,0.14,8.93,-4.19,-2.13
2283282,0.95,0.17,-0.23,0.14,8.95,-4.24,-2.15
2283315,0.95,0.17,-0.24,0.14,8.96,-4.33,-2.15
2283348,0.94,0.17,-0.24,0.14,8.94,-4.31,-2.13
2283381,0.94,0.17,-0.25,0.14,8.82,-4.35,-2.10
2283414,0.94,0.17,-0.25,0.14,8.74,-4.35,-2.10
2283447,0.94,0.18,-0.26,0.14,8.59,-4.46,-2.08
2283480,0.94,0.18,-0.27,0.14,8.55,-4.48,-2.06
2283513,0.94,0.18,-0.27,0.14,8.51,-4.52,-1.99
2283546,0.93,0.18,-0.28,0.14,8.47,-4.55,-1.95
2283579,0.93,0.18,-0.28,0.14,8.50,-4.56,-1.94
2283612,0.93,0.18,-0.28,0.14,8.54,-4.61,-1.88
2283645,0.93,0.18,-0.29,0.14,8.56,-4.72,-1.93
2283678,0.93,0.18,-0.29,0.14,8.59,-4.71,-1.99
2283711,0.93,0.18,-0.29,0.14,8.52,-4.69,-1.99
2283744,0.93,0.18,-0.30,0.14,8.41,-4.79,-1.96
2283777,0.93,0.18,-0.30,0.14,8.42,-4.73,-1.99
2283810,0.93,0.18,-0.30,0.14,8.48,-4.76,-2.02
2283843,0.92,0.18,-0.31,0.14,8.57,-4.70,-2.00
2283875,0.92,0.18,-0.31,0.14,8.60,-4.69,-1.97
2283907,0.92,0.18,-0.31,0.14,8.51,-4.70,-1.99
2283940,0.92,0.18,-0.31,0.14,8.58,-4.67,-2.02
2283973,0.92,0.18,-0.32,0.14,8.56,-4.74,-2.08
2284006,0.92,0.18,-0.32,0.14,8.52,-4.69,-2.10
2284039,0.92,0.18,-0.32,0.14,8.54,-4.71,-2.08
2284072,0.92,0.18,-0.32,0.14,8.53,-4.63,-2.09
2284105,0.92,0.18,-0.32,0.14,8.55,-4.62,-2.09
2284137,0.92,0.18,-0.33,0.15,8.58,-4.64,-2.09
2284169,0.92,0.18,-0.33,0.15,8.66,-4.61,-2.10
2284202,0.92,0.18,-0.33,0.15,8.61,-4.51,-2.09
2284235,0.91,0.18,-0.33,0.15,8.58,-4.54,-2.06
2284268,0.91,0.18,-0.33,0.15,8.59,-4.53,-2.07
2284301,0.91,0.18,-0.34,0.15,8.69,-4.49,-2.09
2284334,0.91,0.18,-0.34,0.15,8.73,-4.47,-2.10
2284367,0.91,0.18,-0.34,0.15,8.74,-4.43,-2.12
2284399,0.91,0.18,-0.34,0.15,8.73,-4.53,-2.12
2284432,0.91,0.18,-0.34,0.15,8.73,-4.49,-2.14
2284465,0.91,0.18,-0.34,0.15,8.78,-4.47,-2.16
2284498,0.91,0.18,-0.35,0.15,8.75,-4.42,-2.13
2284531,0.91,0.18,-0.35,0.15,8.73,-4.40,-2.11
2284564,0.91,0.18,-0.35,0.15,8.75,-4.35,-2.09
2284597,0.91,0.18,-0.35,0.15,8.75,-4.31,-2.10
2284630,0.91,0.18,-0.35,0.15,8.78,-4.34,-2.10
2284662,0.90,0.18,-0.36,0.15,8.74,-4.35,-2.05
2284695,0.90,0.18,-0.36,0.15,8.73,-4.35,-2.06
2284728,0.90,0.18,-0.36,0.15,8.71,-4.35,-2.09
2284761,0.90,0.18,-0.36,0.15,8.76,-4.38,-2.12
2284794,0.90,0.18,-0.37,0.15,8.78,-4.42,-2.12
2284827,0.90,0.18,-0.37,0.15,8.80,-4.38,-2.09
2284860,0.90,0.18,-0.37,0.15,8.79,-4.31,-2.07
2284892,0.90,0.18,-0.37,0.15,8.72,-4.34,-2.08
2284924,0.90,0.18,-0.38,0.15,8.72,-4.35,-2.07
2284956,0.89,0.18,-0.38,0.16,8.69,-4.34,-2.11
2284989,0.89,0.18,-0.38,0.16,8.65,-4.34,-2.05
2285022,0.89,0.18,-0.38,0.16,8.76,-4.32,-2.04
2285055,0.89,0.18,-0.39,0.16,8.77,-4.35,-2.07
2285088,0.89,0.18,-0.39,0.16,8.75,-4.34,-2.10
2285121,0.89,0.18,-0.39,0.16,8.74,-4.32,-2.08
2285154,0.89,0.18,-0.39,0.16,8.73,-4.30,-2.09
2285186,0.89,0.18,-0.39,0.16,8.73,-4.31,-2.12
2285218,0.89,0.18,-0.40,0.16,8.74,-4.27,-2.10
2285251,0.89,0.18,-0.40,0.16,8.77,-4.32,-2.12
2285284,0.88,0.18,-0.40,0.16,8.81,-4.42,-2.14
2285317,0.88,0.18,-0.40,0.16,8.85,-4.45,-2.17
2285349,0.88,0.18,-0.41,0.16,8.80,-4.25,-2.10
2285381,0.88,0.18,-0.41,0.16,8.77,-4.19,-2.02
2285414,0.88,0.18,-0.41,0.16,8.67,-4.25,-1.99
2285446,0.88,0.18,-0.41,0.16,8.70,-4.28,-2.01
2285478,0.88,0.18,-0.42,0.16,8.77,-4.32,-2.03
2285511,0.88,0.18,-0.42,0.16,8.75,-4.37,-2.08
2285544,0.87,0.18,-0.42,0.16,8.75,-4.32,-2.10
2285577,0.87,0.18,-0.42,0.16,8.76,-4.30,-2.12
2285610,0.87,0.18,-0.42,0.16,8.75,-4.26,-2.10
2285643,0.87,0.18,-0.43,0.16,8.75,-4.26,-2.12
2285676,0.87,0.18,-0.43,0.16,8.79,-4.28,-2.10
2285709,0.87,0.18,-0.43,0.16,8.82,-4.23,-2.08
2285742,0.87,0.18,-0.43,0.16,8.82,-4.25,-2.07
2285775,0.87,0.18,-0.43,0.16,8.83,-4.27,-2.08
2285808,0.87,0.19,-0.44,0.16,8.82,-4.28,-2.13
2285841,0.86,0.19,-0.44,0.16,8.79,-4.27,-2.14
2285874,0.86,0.19,-0.44,0.16,8.83,-4.26,-2.11
2285907,0.86,0.19,-0.44,0.16,8.94,-4.29,-2.11
2285940,0.86,0.19,-0.45,0.16,8.92,-4.34,-2.11
2285973,0.86,0.19,-0.45,0.16,9.01,-4.35,-2.10
2286006,0.85,0.19,-0.46,0.16,9.02,-4.42,-2.05
2286039,0.85,0.19,-0.46,0.16,8.98,-4.43,-2.04
2286072,0.85,0.19,-0.47,0.16,8.78,-4.36,-1.98
2286104,0.84,0.20,-0.47,0.16,8.58,-4.55,-1.97
2286137,0.84,0.20,-0.48,0.16,8.44,-4.53,-1.92
2286170,0.84,0.20,-0.48,0.16,8.27,-4.51,-1.92
2286203,0.84,0.20,-0.48,0.16,8.24,-4.66,-1.90
2286235,0.84,0.20,-0.49,0.16,8.35,-4.65,-1.90
2286267,0.83,0.20,-0.49,0.16,8.47,-4.65,-1.90
2286299,0.83,0.20,-0.49,0.16,8.49,-4.74,-1.94
2286331,0.83,0.20,-0.49,0.16,8.54,-4.75,-1.96
2286363,0.83,0.20,-0.49,0.16,8.55,-4.78,-1.96
2286395,0.83,0.20,-0.49,0.16,8.54,-4.79,-1.94
2286427,0.83,0.20,-0.50,0.16,8.57,-4.76,-1.88
2286460,0.83,0.20,-0.50,0.16,8.70,-4.74,-1.87
2286492,0.83,0.19,-0.50,0.16,8.72,-4.70,-1.87
2286525,0.83,0.19,-0.50,0.16,8.66,-4.63,-1.85
2286558,0.83,0.19,-0.50,0.16,8.51,-4.61,-1.85
2286590,0.83,0.19,-0.51,0.16,8.52,-4.51,-1.79
2286623,0.83,0.19,-0.51,0.16,8.54,-4.38,-1.75
2286655,0.83,0.19,-0.51,0.15,8.63,-4.24,-1.75
2286687,0.83,0.19,-0.50,0.15,8.78,-4.23,-1.79
2286720,0.83,0.19,-0.50,0.15,8.91,-4.40,-1.88
2286752,0.83,0.18,-0.50,0.14,9.18,-4.40,-2.01
2286784,0.83,0.18,-0.51,0.14,9.18,-4.43,-2.05
2286817,0.83,0.18,-0.51,0.14,9.14,-4.37,-2.00
2286849,0.83,0.18,-0.51,0.13,9.13,-4.30,-1.96
2286881,0.83,0.18,-0.51,0.13,9.01,-4.27,-1.85
2286913,0.83,0.18,-0.52,0.13,8.99,-4.24,-1.79
2286946,0.82,0.18,-0.52,0.13,8.94,-4.17,-1.65
2286978,0.82,0.18,-0.52,0.12,8.91,-4.27,-1.64
2287010,0.82,0.18,-0.53,0.12,8.85,-4.30,-1.62
2287042,0.82,0.18,-0.53,0.11,8.80,-4.32,-1.62
2287074,0.82,0.18,-0.53,0.11,8.78,-4.41,-1.64
2287106,0.82,0.18,-0.54,0.11,8.87,-4.43,-1.64
2287139,0.82,0.18,-0.54,0.11,8.91,-4.47,-1.58
2287171,0.81,0.18,-0.54,0.10,8.93,-4.61,-1.55
2287204,0.81,0.18,-0.55,0.10,8.98,-4.63,-1.54
2287236,0.81,0.18,-0.55,0.10,9.04,-4.73,-1.52
2287268,0.80,0.18,-0.56,0.10,8.99,-4.80,-1.52
2287300,0.80,0.18,-0.57,0.10,8.92,-4.88,-1.58
2287332,0.79,0.18,-0.58,0.10,8.90,-5.13,-1.56
2287364,0.78,0.18,-0.59,0.10,8.74,-5.18,-1.59
2287396,0.78,0.17,-0.60,0.11,8.33,-5.28,-1.59
2287428,0.77,0.17,-0.60,0.11,7.95,-5.52,-1.62
2287460,0.77,0.17,-0.61,0.11,7.78,-5.71,-1.60
2287493,0.76,0.17,-0.61,0.11,7.72,-5.86,-1.61
2287525,0.76,0.17,-0.62,0.11,7.66,-5.97,-1.58
2287557,0.76,0.17,-0.62,0.11,7.60,-6.09,-1.59
2287590,0.75,0.18,-0.62,0.11,7.52,-6.20,-1.50
2287622,0.75,0.18,-0.62,0.11,7.50,-6.32,-1.47
2287654,0.75,0.18,-0.63,0.11,7.52,-6.41,-1.47
2287686,0.75,0.18,-0.63,0.12,7.49,-6.48,-1.53
2287718,0.75,0.18,-0.63,0.12,7.42,-6.70,-1.57
2287751,0.74,0.18,-0.64,0.12,7.33,-6.77,-1.56
2287783,0.74,0.18,-0.64,0.12,7.18,-6.89,-1.46
2287815,0.74,0.18,-0.64,0.12,7.14,-6.88,-1.42
2287848,0.73,0.18,-0.64,0.12,7.00,-6.97,-1.38
2287881,0.73,0.18,-0.65,0.12,6.96,-7.05,-1.36
2287914,0.73,0.18,-0.65,0.12,6.84,-7.13,-1.38
2287947,0.73,0.18,-0.65,0.12,6.83,-7.23,-1.36
2287980,0.72,0.18,-0.66,0.11,6.73,-7.29,-1.37
2288013,0.72,0.18,-0.66,0.11,6.63,-7.37,-1.37
2288046,0.72,0.19,-0.66,0.11,6.54,-7.52,-1.37
2288079,0.71,0.19,-0.67,0.11,6.50,-7.59,-1.38
2288112,0.71,0.19,-0.67,0.11,6.58,-7.73,-1.34
2288145,0.70,0.19,-0.68,0.10,6.66,-8.03,-1.06
2288178,0.70,0.19,-0.68,0.10,6.99,-7.03,-0.94
2288211,0.69,0.20,-0.69,0.08,7.11,-7.27,-1.05
2288244,0.69,0.20,-0.70,0.06,6.78,-7.71,-1.16
2288277,0.68,0.21,-0.70,0.04,6.36,-7.98,-1.39
2288310,0.67,0.23,-0.70,0.01,6.07,-8.13,-1.42
2288343,0.67,0.24,-0.70,-0.01,5.44,-8.32,-1.42
2288376,0.67,0.25,-0.70,-0.04,4.76,-8.39,-1.37
2288409,0.66,0.27,-0.70,-0.07,4.28,-8.81,-1.22
2288442,0.66,0.28,-0.69,-0.09,4.08,-8.69,-0.98
2288475,0.66,0.29,-0.69,-0.10,4.10,-8.69,-0.78
2288508,0.66,0.29,-0.69,-0.12,4.19,-8.69,-0.60
2288541,0.65,0.30,-0.68,-0.13,4.24,-8.77,-0.52
2288573,0.65,0.30,-0.68,-0.14,4.25,-8.97,-0.56
2288605,0.65,0.30,-0.68,-0.15,4.10,-9.08,-0.60
2288638,0.65,0.30,-0.67,-0.15,4.02,-9.19,-0.65
2288671,0.66,0.31,-0.67,-0.16,4.10,-9.01,-0.59
2288704,0.66,0.31,-0.67,-0.16,4.00,-9.11,-0.56
2288737,0.66,0.31,-0.67,-0.16,4.29,-9.05,-0.45
2288769,0.66,0.31,-0.66,-0.17,4.48,-8.87,-0.41
2288802,0.66,0.31,-0.66,-0.17,4.25,-8.95,-0.46
2288834,0.67,0.31,-0.66,-0.17,4.34,-8.86,-0.52
2288866,0.67,0.31,-0.65,-0.16,4.55,-8.93,-0.60
2288899,0.68,0.31,-0.65,-0.16,4.77,-8.78,-0.61
2288932,0.68,0.31,-0.65,-0.16,5.05,-8.80,-0.50
2288965,0.69,0.30,-0.64,-0.16,5.27,-8.77,-0.46
2288998,0.69,0.30,-0.64,-0.15,5.32,-8.70,-0.43
2289031,0.69,0.30,-0.64,-0.15,5.32,-8.69,-0.44
2289064,0.69,0.30,-0.64,-0.15,5.48,-8.77,-0.34
2289096,0.70,0.30,-0.64,-0.15,5.78,-8.44,-0.21
2289129,0.70,0.30,-0.64,-0.15,5.63,-8.40,-0.23
2289162,0.70,0.29,-0.64,-0.14,5.44,-8.52,-0.28
2289195,0.70,0.29,-0.64,-0.14,5.46,-8.44,-0.40
2289228,0.70,0.28,-0.65,-0.14,5.16,-8.73,-0.66
2289260,0.69,0.27,-0.65,-0.13,4.78,-8.96,-0.82
2289292,0.69,0.25,-0.67,-0.12,4.64,-8.96,-0.99
2289325,0.68,0.24,-0.68,-0.11,4.71,-9.09,-1.08
2289357,0.68,0.22,-0.69,-0.10,4.55,-9.04,-1.28
2289390,0.67,0.20,-0.71,-0.09,4.17,-9.12,-1.44
2289423,0.67,0.19,-0.72,-0.08,3.86,-9.26,-1.51
2289456,0.66,0.17,-0.73,-0.07,3.46,-9.15,-1.52
2289489,0.65,0.16,-0.74,-0.06,3.02,-9.33,-1.54
2289521,0.65,0.15,-0.74,-0.05,2.83,-9.56,-1.52
2289554,0.65,0.14,-0.75,-0.04,2.53,-9.46,-1.57
2289587,0.64,0.14,-0.75,-0.04,2.33,-9.33,-1.68
2289619,0.64,0.13,-0.76,-0.03,2.07,-9.53,-1.71
2289651,0.63,0.12,-0.76,-0.03,1.98,-9.53,-1.80
2289684,0.63,0.12,-0.77,-0.02,1.77,-9.56,-1.88
2289717,0.63,0.11,-0.77,-0.02,1.43,-9.68,-1.99
2289749,0.62,0.11,-0.77,-0.01,1.13,-9.77,-2.04
2289782,0.62,0.10,-0.78,-0.00,1.03,-9.87,-1.92
2289814,0.62,0.10,-0.78,0.00,0.92,-9.82,-1.81
2289846,0.62,0.09,-0.78,0.01,0.92,-9.80,-1.76
2289878,0.62,0.09,-0.78,0.02,1.06,-9.58,-1.68
2289910,0.62,0.08,-0.78,0.02,1.02,-9.41,-1.69
2289942,0.61,0.08,-0.78,0.02,0.78,-9.51,-1.78
2289975,0.61,0.08,-0.78,0.03,0.60,-9.98,-1.78
2290008,0.61,0.08,-0.78,0.03,0.56,-9.80,-1.86
2290040,0.61,0.07,-0.78,0.04,0.44,-9.93,-1.83
2290072,0.61,0.07,-0.78,0.04,0.52,-10.06,-1.81
2290105,0.61,0.07,-0.78,0.05,0.45,-10.13,-1.67
2290137,0.61,0.07,-0.78,0.05,0.62,-9.86,-1.46
2290169,0.61,0.07,-0.78,0.06,0.75,-9.93,-1.24
2290202,0.61,0.07,-0.78,0.07,0.73,-9.74,-1.10
2290235,0.62,0.07,-0.78,0.07,0.75,-9.51,-0.98
2290268,0.62,0.07,-0.78,0.07,0.79,-9.48,-0.93
2290301,0.62,0.07,-0.77,0.08,1.02,-9.73,-0.92
2290334,0.63,0.08,-0.77,0.08,1.23,-9.95,-0.78
2290367,0.64,0.08,-0.76,0.08,1.50,-9.93,-0.75
2290400,0.64,0.08,-0.76,0.08,1.75,-9.64,-0.76
2290433,0.64,0.08,-0.75,0.08,1.59,-9.54,-0.71
2290466,0.65,0.09,-0.75,0.09,1.36,-10.04,-0.76
2290499,0.65,0.09,-0.75,0.09,1.50,-10.02,-0.84
2290532,0.66,0.08,-0.74,0.08,1.58,-10.04,-1.09
2290565,0.66,0.08,-0.74,0.08,1.79,-10.34,-1.18
2290598,0.67,0.08,-0.73,0.09,1.89,-10.16,-1.16
2290631,0.67,0.07,-0.73,0.09,1.99,-9.85,-1.09
2290664,0.67,0.07,-0.73,0.09,1.96,-9.59,-1.08
2290697,0.67,0.07,-0.73,0.10,1.83,-9.85,-1.01
2290730,0.67,0.06,-0.73,0.10,1.83,-9.85,-0.93
2290762,0.67,0.06,-0.74,0.10,1.76,-9.98,-0.85
2290794,0.67,0.06,-0.74,0.10,1.71,-9.94,-0.83
2290826,0.67,0.06,-0.74,0.10,1.70,-9.82,-0.96
2290858,0.66,0.06,-0.74,0.10,1.59,-9.69,-1.11
2290890,0.66,0.06,-0.74,0.10,1.16,-9.73,-1.26
2290923,0.66,0.06,-0.74,0.10,1.01,-10.15,-1.26
2290955,0.66,0.06,-0.74,0.10,0.83,-10.37,-1.09
2290987,0.66,0.06,-0.74,0.10,0.86,-9.93,-1.02
2291019,0.66,0.06,-0.74,0.10,0.95,-9.85,-1.00
2291051,0.66,0.07,-0.74,0.11,0.95,-9.94,-0.89
2291083,0.66,0.07,-0.74,0.11,1.18,-10.10,-0.80
2291115,0.66,0.07,-0.74,0.11,1.29,-10.35,-0.67
2291148,0.65,0.08,-0.74,0.11,1.42,-9.63,-0.54
2291180,0.65,0.09,-0.74,0.11,1.22,-9.37,-0.44
2291212,0.66,0.09,-0.74,0.10,0.92,-9.69,-0.42
2291244,0.66,0.09,-0.73,0.10,0.49,-9.95,-0.44
2291276,0.67,0.09,-0.73,0.10,0.08,-9.75,-0.48
2291308,0.68,0.09,-0.72,0.10,0.35,-9.71,-0.52
2291341,0.68,0.08,-0.72,0.11,1.00,-9.69,-0.56
2291374,0.68,0.07,-0.72,0.11,1.62,-9.84,-0.58
2291406,0.68,0.06,-0.72,0.11,2.11,-9.71,-0.75
2291439,0.68,0.06,-0.72,0.11,2.50,-10.24,-0.97
2291472,0.69,0.06,-0.72,0.10,2.23,-10.48,-0.93
2291504,0.69,0.07,-0.72,0.09,1.94,-10.17,-1.00
2291536,0.69,0.08,-0.72,0.08,1.79,-10.00,-1.05
2291568,0.68,0.09,-0.72,0.07,1.58,-9.96,-1.01
2291600,0.68,0.11,-0.72,0.05,1.21,-9.79,-1.02
2291632,0.68,0.12,-0.72,0.04,0.79,-9.93,-0.99
2291664,0.68,0.13,-0.72,0.03,0.28,-9.86,-0.93
2291696,0.68,0.13,-0.72,0.03,-0.04,-9.88,-0.75
2291728,0.67,0.14,-0.72,0.02,-0.11,-9.74,-0.71
2291760,0.68,0.14,-0.72,0.02,0.09,-9.65,-0.70
2291792,0.68,0.13,-0.72,0.02,0.31,-9.61,-0.73
2291824,0.68,0.13,-0.72,0.01,0.61,-9.57,-0.81
2291856,0.69,0.13,-0.71,0.01,0.71,-9.64,-0.95
2291888,0.70,0.13,-0.71,0.00,0.59,-9.75,-1.14
2291920,0.70,0.12,-0.70,-0.00,0.73,-9.79,-1.25
2291952,0.71,0.12,-0.69,-0.01,0.98,-9.63,-1.31
2291984,0.73,0.12,-0.68,-0.02,0.96,-9.49,-1.40
2292016,0.74,0.13,-0.66,-0.03,0.79,-9.62,-1.51
2292048,0.75,0.13,-0.65,-0.03,0.69,-9.72,-1.68
2292080,0.76,0.13,-0.63,-0.04,0.47,-9.84,-1.87
2292112,0.77,0.13,-0.62,-0.04,0.33,-9.71,-1.97
2292144,0.79,0.14,-0.60,-0.05,0.67,-9.41,-1.99
2292176,0.80,0.14,-0.58,-0.05,1.39,-9.12,-1.90
2292208,0.82,0.14,-0.56,-0.05,2.28,-8.89,-1.73
2292240,0.83,0.15,-0.53,-0.05,3.78,-8.68,-1.60
2292273,0.85,0.15,-0.51,-0.05,5.74,-8.03,-1.31
2292305,0.86,0.15,-0.48,-0.06,6.90,-8.06,-1.25
2292337,0.88,0.15,-0.45,-0.06,7.68,-8.22,-1.06
2292370,0.89,0.15,-0.42,-0.07,8.28,-7.76,-0.80
2292403,0.90,0.15,-0.40,-0.08,8.71,-7.53,-0.64
2292436,0.90,0.15,-0.39,-0.10,8.71,-6.87,-0.57
2292468,0.91,0.15,-0.38,-0.11,8.70,-6.66,-0.58
2292500,0.91,0.14,-0.37,-0.13,8.26,-6.76,-0.54
2292533,0.91,0.14,-0.36,-0.15,7.87,-6.55,-0.44
2292566,0.91,0.14,-0.35,-0.16,7.65,-6.19,-0.20
2292599,0.91,0.14,-0.35,-0.18,7.88,-6.15,0.15
2292632,0.91,0.14,-0.34,-0.20,8.16,-6.14,0.40
2292665,0.91,0.13,-0.33,-0.21,8.12,-6.14,0.72
2292698,0.91,0.13,-0.33,-0.23,8.30,-5.79,0.96
2292731,0.91,0.13,-0.33,-0.24,8.77,-5.71,1.19
2292764,0.90,0.13,-0.32,-0.25,8.80,-5.62,1.37
2292797,0.90,0.12,-0.32,-0.25,9.15,-5.44,1.42
2292830,0.90,0.12,-0.32,-0.26,9.30,-5.61,1.42
2292863,0.91,0.11,-0.32,-0.26,9.50,-5.65,1.21
2292896,0.91,0.10,-0.32,-0.26,9.68,-5.39,0.99
2292929,0.91,0.10,-0.31,-0.25,9.71,-5.22,0.74
2292962,0.91,0.09,-0.31,-0.25,9.23,-5.07,0.34
2292995,0.91,0.09,-0.31,-0.24,8.89,-4.53,-0.33
2293028,0.92,0.08,-0.32,-0.23,8.83,-4.41,-0.82
2293061,0.92,0.08,-0.32,-0.22,8.98,-4.31,-1.27
2293094,0.92,0.07,-0.32,-0.21,8.86,-4.00,-1.83
2293127,0.92,0.07,-0.32,-0.20,9.03,-3.60,-2.68
2293160,0.92,0.06,-0.33,-0.19,9.07,-3.73,-3.29
2293193,0.92,0.06,-0.34,-0.18,8.95,-3.74,-3.61
2293226,0.92,0.06,-0.36,-0.17,8.13,-3.26,-3.75
2293259,0.91,0.05,-0.38,-0.15,7.85,-2.73,-3.63
2293292,0.90,0.05,-0.40,-0.14,7.38,-3.97,-3.43
2293325,0.89,0.04,-0.43,-0.12,7.52,-3.84,-3.36
2293358,0.88,0.04,-0.45,-0.10,7.32,-4.98,-3.22
2293391,0.87,0.03,-0.48,-0.09,6.88,-5.94,-3.25
2293424,0.86,0.03,-0.50,-0.07,6.90,-6.72,-3.34
2293457,0.85,0.03,-0.52,-0.05,6.56,-7.26,-3.38
2293489,0.84,0.03,-0.54,-0.04,5.92,-8.23,-3.56
2293521,0.83,0.03,-0.56,-0.03,5.25,-9.12,-3.60
2293553,0.82,0.03,-0.58,-0.02,4.37,-10.45,-3.40
2293586,0.80,0.03,-0.59,-0.01,3.88,-10.95,-3.24
2293619,0.79,0.04,-0.61,0.01,3.35,-11.34,-3.09
2293652,0.78,0.04,-0.62,0.02,3.12,-11.44,-2.79
2293685,0.78,0.04,-0.63,0.04,2.95,-10.50,-2.07
2293718,0.77,0.05,-0.64,0.05,1.98,-9.52,-1.42
2293751,0.76,0.06,-0.65,0.07,1.76,-8.92,-0.89
2293783,0.75,0.08,-0.65,0.09,1.00,-8.54,-0.48
2293816,0.73,0.09,-0.66,0.11,0.56,-8.17,-0.03
2293849,0.72,0.11,-0.67,0.14,0.32,-8.63,0.77
2293882,0.70,0.12,-0.68,0.16,-0.23,-8.87,1.53
2293915,0.69,0.14,-0.69,0.18,-0.90,-9.22,2.19
2293948,0.67,0.15,-0.70,0.20,-1.62,-9.68,2.65
2293981,0.65,0.15,-0.71,0.22,-2.03,-9.85,3.32
2294014,0.64,0.15,-0.72,0.23,-2.29,-9.60,3.48
2294046,0.63,0.14,-0.73,0.24,-2.14,-9.19,3.52
2294079,0.62,0.14,-0.73,0.25,-1.99,-9.02,3.54
2294112,0.62,0.13,-0.73,0.26,-1.79,-8.90,3.39
2294145,0.62,0.12,-0.73,0.26,-1.46,-8.83,3.16
2294178,0.62,0.11,-0.73,0.26,-1.22,-9.11,2.94
2294211,0.63,0.10,-0.73,0.26,-0.94,-9.53,2.62
2294244,0.63,0.09,-0.72,0.26,-0.73,-9.93,2.45
2294277,0.64,0.09,-0.72,0.26,-0.18,-10.10,2.32
2294309,0.64,0.08,-0.72,0.25,0.03,-10.00,2.10
2294341,0.65,0.08,-0.72,0.25,0.11,-9.93,1.94
2294373,0.65,0.08,-0.72,0.24,-0.00,-9.91,1.78
2294406,0.65,0.08,-0.72,0.23,0.08,-10.01,1.58
2294438,0.65,0.08,-0.72,0.22,0.11,-10.00,1.13
2294470,0.65,0.09,-0.72,0.21,0.31,-9.53,0.88
2294503,0.66,0.09,-0.72,0.20,-0.11,-9.33,0.55
2294535,0.68,0.09,-0.70,0.18,-0.48,-9.53,0.34
2294567,0.71,0.09,-0.68,0.17,-0.25,-10.21,-0.10
2294599,0.73,0.09,-0.66,0.15,0.28,-10.43,-0.20
2294632,0.76,0.09,-0.63,0.14,1.49,-10.69,-0.16
2294664,0.77,0.10,-0.62,0.13,2.57,-10.34,-0.13
2294696,0.78,0.11,-0.60,0.12,2.95,-10.19,-0.02
2294728,0.79,0.11,-0.59,0.11,2.85,-10.09,0.21
2294760,0.80,0.12,-0.58,0.10,2.48,-9.74,0.34
2294792,0.80,0.12,-0.58,0.09,2.44,-9.54,0.41
2294824,0.80,0.13,-0.57,0.09,2.58,-9.54,0.50
2294856,0.81,0.12,-0.57,0.09,2.57,-9.65,0.57
2294888,0.81,0.12,-0.57,0.10,2.68,-9.35,0.45
2294920,0.81,0.11,-0.57,0.10,2.88,-9.66,0.27
2294952,0.81,0.11,-0.57,0.10,3.06,-9.62,0.17
2294985,0.80,0.10,-0.58,0.11,3.05,-9.57,-0.02
2295017,0.80,0.09,-0.58,0.11,2.95,-9.87,-0.19
2295050,0.80,0.09,-0.58,0.11,2.75,-9.98,-0.30
2295083,0.80,0.09,-0.59,0.12,2.49,-10.04,-0.40
2295116,0.79,0.08,-0.59,0.12,2.20,-10.21,-0.38
2295149,0.79,0.08,-0.60,0.12,1.87,-10.23,-0.21
2295182,0.78,0.08,-0.60,0.13,1.48,-9.95,-0.12
2295215,0.78,0.08,-0.61,0.14,1.19,-9.85,-0.01
2295248,0.77,0.08,-0.61,0.14,0.81,-9.76,0.12
2295280,0.77,0.08,-0.62,0.15,0.58,-9.97,0.11
2295313,0.76,0.08,-0.62,0.15,0.61,-9.82,0.09
2295345,0.76,0.07,-0.63,0.16,0.74,-9.74,0.02
2295377,0.75,0.07,-0.63,0.16,0.81,-9.97,-0.03
2295410,0.75,0.07,-0.63,0.17,0.83,-10.17,0.00
2295443,0.75,0.06,-0.64,0.17,0.81,-10.25,0.01
2295476,0.75,0.06,-0.64,0.17,0.68,-9.81,0.01
2295509,0.75,0.06,-0.64,0.17,0.56,-9.82,-0.09
2295542,0.75,0.06,-0.64,0.17,0.39,-10.02,-0.16
2295574,0.75,0.06,-0.63,0.17,0.33,-10.13,-0.13
2295606,0.75,0.06,-0.63,0.18,0.44,-10.23,-0.09
2295638,0.75,0.06,-0.63,0.18,0.62,-10.05,0.01
2295676,0.75,0.06,-0.63,0.18,0.76,-10.07,0.07
2295708,0.75,0.06,-0.63,0.18,0.72,-9.97,0.07
2295741,0.75,0.06,-0.63,0.18,0.53,-9.98,0.05
2295774,0.75,0.06,-0.63,0.18,0.44,-10.13,0.00
2295807,0.76,0.06,-0.63,0.19,0.53,-10.07,0.04
2295840,0.76,0.06,-0.62,0.19,0.53,-9.99,0.06
2295872,0.76,0.06,-0.62,0.19,0.58,-9.95,0.07
2295904,0.76,0.06,-0.62,0.19,0.63,-9.89,0.17
2295937,0.77,0.05,-0.61,0.19,0.68,-9.88,0.30
2295970,0.77,0.05,-0.61,0.18,0.67,-9.74,0.36
2296003,0.78,0.05,-0.60,0.18,0.74,-9.91,0.27
2296036,0.78,0.05,-0.60,0.17,0.79,-9.97,0.21
2296069,0.79,0.05,-0.59,0.17,0.85,-10.00,0.15
2296102,0.79,0.04,-0.58,0.16,1.02,-9.94,0.03
2296134,0.80,0.04,-0.58,0.15,1.13,-9.93,-0.11
2296167,0.80,0.04,-0.57,0.15,1.19,-10.05,-0.29
2296200,0.81,0.04,-0.57,0.14,1.22,-10.19,-0.40
2296233,0.81,0.03,-0.56,0.14,1.33,-10.04,-0.46
2296266,0.82,0.03,-0.56,0.13,1.49,-10.18,-0.50
2296299,0.82,0.03,-0.56,0.13,1.64,-10.02,-0.55
2296332,0.82,0.03,-0.56,0.13,1.65,-9.95,-0.58
2296365,0.82,0.02,-0.56,0.12,1.64,-9.94,-0.65
2296397,0.82,0.02,-0.56,0.12,1.64,-9.73,-0.73
2296429,0.82,0.02,-0.56,0.12,1.62,-9.70,-0.88
2296461,0.82,0.01,-0.56,0.11,1.64,-9.55,-1.15
2296494,0.82,0.01,-0.56,0.11,1.51,-9.69,-1.36
2296527,0.82,0.00,-0.56,0.11,1.46,-9.79,-1.54
2296560,0.82,-0.00,-0.55,0.11,1.57,-9.88,-1.61
2296593,0.83,-0.00,-0.55,0.11,1.61,-9.90,-1.71
2296626,0.83,-0.01,-0.55,0.11,1.51,-9.91,-1.70
2296658,0.83,-0.01,-0.55,0.12,1.35,-9.97,-1.74
2296690,0.83,-0.01,-0.55,0.12,1.17,-9.83,-1.67
2296723,0.83,-0.02,-0.55,0.12,1.12,-9.63,-1.65
2296756,0.83,-0.02,-0.55,0.13,1.14,-9.44,-1.75
2296789,0.83,-0.02,-0.55,0.13,1.16,-9.19,-1.91
2296822,0.83,-0.03,-0.55,0.13,1.07,-9.33,-2.16
2296855,0.83,-0.03,-0.54,0.12,1.24,-9.42,-2.34
2296888,0.83,-0.04,-0.54,0.12,1.41,-9.54,-2.54
2296920,0.83,-0.04,-0.54,0.11,1.28,-10.05,-2.53
2296952,0.84,-0.04,-0.53,0.11,1.12,-9.96,-2.65
2296985,0.84,-0.04,-0.53,0.11,0.85,-10.08,-2.65
2297018,0.84,-0.05,-0.53,0.11,1.00,-9.96,-2.64
2297051,0.84,-0.05,-0.52,0.11,1.31,-9.76,-2.62
2297084,0.84,-0.04,-0.52,0.11,1.57,-9.93,-2.56
2297117,0.84,-0.04,-0.52,0.12,1.61,-9.48,-2.61
2297150,0.85,-0.04,-0.52,0.12,1.60,-9.01,-2.70
2297182,0.85,-0.03,-0.51,0.12,1.70,-8.97,-2.78
2297214,0.85,-0.03,-0.51,0.12,1.90,-9.67,-2.78
2297247,0.86,-0.02,-0.50,0.12,2.33,-9.86,-2.67
2297280,0.86,-0.02,-0.50,0.13,2.29,-9.90,-2.28
2297313,0.85,-0.01,-0.50,0.14,1.82,-10.35,-1.73
2297346,0.85,-0.01,-0.50,0.15,1.65,-10.37,-1.08
2297379,0.85,-0.00,-0.51,0.16,1.60,-9.66,-0.82
2297412,0.84,0.00,-0.51,0.16,1.25,-9.16,-0.90
2297445,0.84,0.00,-0.52,0.16,0.99,-8.88,-1.26
2297478,0.84,0.00,-0.52,0.17,0.42,-10.49,-1.52
2297511,0.83,0.01,-0.53,0.17,0.12,-10.57,-1.08
2297544,0.83,0.01,-0.53,0.18,0.29,-9.95,-0.80
2297577,0.83,0.01,-0.53,0.18,0.32,-10.16,-0.60
2297610,0.83,0.01,-0.53,0.19,0.74,-9.49,-0.67
2297642,0.83,0.01,-0.53,0.19,0.46,-9.36,-0.89
2297674,0.82,0.01,-0.53,0.19,-0.01,-9.86,-1.14
2297707,0.82,0.02,-0.53,0.19,-0.01,-10.17,-1.25
2297740,0.83,0.02,-0.53,0.19,0.12,-9.98,-1.27
2297773,0.83,0.02,-0.53,0.19,0.40,-9.83,-1.09
2297806,0.83,0.02,-0.53,0.18,0.34,-9.93,-1.07
2297839,0.83,0.03,-0.53,0.18,0.01,-9.73,-1.04
2297872,0.83,0.03,-0.53,0.17,-0.37,-9.82,-1.00
2297905,0.83,0.03,-0.52,0.17,-0.50,-10.03,-0.89
2297938,0.84,0.03,-0.51,0.17,-0.31,-10.32,-0.79
2297970,0.85,0.03,-0.51,0.17,0.18,-10.06,-0.82
2298002,0.85,0.02,-0.50,0.16,0.51,-9.45,-1.15
2298035,0.86,0.02,-0.49,0.16,0.40,-9.37,-1.42
2298068,0.86,0.02,-0.48,0.15,0.41,-10.00,-1.52
2298101,0.86,0.02,-0.48,0.15,0.67,-10.26,-1.51
2298134,0.87,0.02,-0.47,0.15,0.91,-10.00,-1.51
2298167,0.87,0.02,-0.47,0.15,0.91,-10.15,-1.49
2298200,0.87,0.02,-0.47,0.15,0.89,-10.15,-1.35
2298232,0.87,0.03,-0.46,0.15,1.02,-9.41,-1.21
2298264,0.87,0.03,-0.46,0.15,1.31,-9.60,-1.12
2298297,0.88,0.03,-0.46,0.15,1.60,-9.90,-0.95
2298330,0.88,0.04,-0.45,0.16,1.98,-9.98,-0.93
2298363,0.88,0.04,-0.45,0.15,1.75,-9.89,-0.76
2298396,0.88,0.05,-0.45,0.15,0.84,-9.95,-0.68
2298429,0.88,0.05,-0.45,0.15,0.54,-9.99,-0.61
2298462,0.88,0.05,-0.45,0.15,0.56,-9.85,-0.55
2298494,0.88,0.05,-0.45,0.16,0.57,-9.71,-0.40
2298527,0.88,0.05,-0.45,0.16,0.67,-9.92,-0.26
2298560,0.88,0.05,-0.45,0.17,0.76,-10.16,-0.26
2298593,0.88,0.05,-0.45,0.17,0.67,-9.87,-0.24
2298625,0.88,0.05,-0.45,0.17,0.55,-10.04,-0.32
2298658,0.88,0.04,-0.45,0.18,0.63,-9.87,-0.46
2298691,0.88,0.04,-0.45,0.17,0.60,-9.75,-0.67
2298724,0.88,0.04,-0.45,0.17,0.48,-10.00,-0.86
2298756,0.88,0.04,-0.44,0.17,0.54,-10.03,-1.04
2298789,0.88,0.03,-0.44,0.17,0.53,-9.98,-1.22
2298822,0.88,0.03,-0.44,0.16,0.47,-10.11,-1.23
2298855,0.88,0.03,-0.44,0.16,0.65,-9.95,-1.24
2298888,0.89,0.03,-0.43,0.16,0.62,-10.16,-1.27
2298921,0.89,0.03,-0.43,0.16,0.50,-10.24,-1.17
2298954,0.89,0.03,-0.43,0.16,0.45,-10.07,-1.05
2298987,0.89,0.03,-0.43,0.16,0.56,-9.78,-1.04
2299020,0.89,0.03,-0.42,0.16,0.72,-9.53,-1.03
2299053,0.89,0.03,-0.42,0.16,0.78,-9.65,-0.97
2299086,0.90,0.03,-0.41,0.16,1.04,-10.00,-0.88
2299118,0.90,0.04,-0.40,0.16,1.35,-9.96,-0.81
2299151,0.91,0.04,-0.38,0.15,1.65,-9.86,-0.75
2299184,0.92,0.04,-0.37,0.14,2.00,-9.91,-0.70
2299217,0.92,0.05,-0.36,0.13,2.04,-10.06,-0.78
2299250,0.93,0.05,-0.34,0.12,2.11,-9.85,-0.78
2299282,0.93,0.05,-0.33,0.11,2.08,-9.66,-0.71
2299314,0.94,0.06,-0.33,0.10,2.13,-9.62,-0.68
2299347,0.94,0.06,-0.33,0.09,2.14,-9.68,-0.65
2299380,0.94,0.06,-0.32,0.09,2.02,-9.70,-0.70
2299413,0.94,0.05,-0.32,0.09,2.10,-9.79,-0.79
2299446,0.94,0.05,-0.33,0.09,2.17,-9.76,-0.88
2299479,0.94,0.05,-0.33,0.09,2.11,-9.72,-0.93
2299512,0.94,0.05,-0.33,0.09,1.92,-9.77,-1.00
2299544,0.94,0.04,-0.33,0.09,1.80,-9.93,-1.10
2299576,0.94,0.04,-0.34,0.09,1.66,-9.97,-1.19
2299609,0.94,0.04,-0.34,0.10,1.57,-9.96,-1.19
2299642,0.93,0.04,-0.34,0.10,1.45,-10.05,-1.21
2299674,0.93,0.04,-0.34,0.10,1.43,-9.93,-1.17
2299707,0.93,0.04,-0.34,0.11,1.39,-9.92,-1.14
2299740,0.93,0.04,-0.34,0.11,1.41,-9.81,-1.11
2299773,0.93,0.04,-0.34,0.11,1.36,-9.73,-1.07
2299806,0.93,0.04,-0.34,0.11,1.23,-9.92,-1.01
2299839,0.93,0.04,-0.34,0.11,1.14,-9.95,-1.02
2299872,0.93,0.04,-0.34,0.12,1.19,-9.93,-0.96
2299905,0.93,0.04,-0.34,0.12,1.08,-9.95,-0.94
2299938,0.93,0.05,-0.34,0.12,1.03,-9.93,-0.98
2299971,0.93,0.05,-0.34,0.12,0.95,-9.97,-0.99
2300004,0.93,0.05,-0.34,0.12,0.88,-10.01,-0.96
2300037,0.93,0.05,-0.34,0.12,0.83,-9.93,-0.92
2300070,0.93,0.05,-0.34,0.12,0.78,-9.92,-0.89
2300103,0.93,0.05,-0.33,0.12,0.66,-10.05,-0.83
2300136,0.93,0.06,-0.33,0.12,0.63,-9.92,-0.84
2300169,0.93,0.06,-0.33,0.12,0.66,-9.91,-0.74
2300202,0.94,0.06,-0.33,0.12,0.67,-9.92,-0.73
2300235,0.94,0.06,-0.32,0.12,0.79,-9.97,-0.71
2300268,0.94,0.06,-0.32,0.12,0.86,-9.96,-0.62
2300301,0.94,0.06,-0.32,0.12,0.83,-10.02,-0.57
2300333,0.94,0.06,-0.31,0.12,0.85,-9.97,-0.56
2300365,0.94,0.06,-0.31,0.12,0.80,-10.03,-0.52
2300398,0.94,0.06,-0.31,0.12,0.82,-9.97,-0.58
2300431,0.94,0.06,-0.31,0.12,0.65,-9.96,-0.59
2300464,0.94,0.06,-0.31,0.12,0.70,-9.99,-0.60
2300497,0.94,0.06,-0.31,0.12,0.70,-9.93,-0.56
2300530,0.94,0.06,-0.30,0.12,0.67,-9.98,-0.57
2300563,0.94,0.06,-0.30,0.12,0.75,-10.01,-0.54
2300595,0.95,0.06,-0.30,0.12,0.79,-10.02,-0.53
2300627,0.95,0.06,-0.29,0.12,0.62,-9.96,-0.57
2300660,0.95,0.06,-0.29,0.12,0.32,-10.30,-0.55
2300693,0.95,0.06,-0.29,0.12,0.38,-9.97,-0.48
2300726,0.95,0.06,-0.29,0.12,0.60,-9.95,-0.55
2300759,0.95,0.06,-0.29,0.12,0.78,-10.10,-0.59
2300792,0.95,0.06,-0.29,0.12,0.86,-9.84,-0.54
2300825,0.95,0.06,-0.29,0.12,0.53,-9.97,-0.60
2300857,0.95,0.06,-0.29,0.12,0.49,-10.17,-0.48
2300889,0.95,0.06,-0.29,0.12,0.38,-9.85,-0.60
2300922,0.95,0.06,-0.29,0.11,0.16,-9.83,-0.68
2300955,0.95,0.06,-0.28,0.11,0.18,-9.96,-0.72
2300988,0.95,0.06,-0.28,0.11,0.15,-10.10,-0.72
2301021,0.95,0.06,-0.28,0.11,0.16,-10.09,-0.75
2301054,0.95,0.06,-0.27,0.11,0.34,-10.05,-0.70
2301087,0.95,0.06,-0.27,0.11,0.48,-10.05,-0.62
2301119,0.96,0.06,-0.26,0.11,0.56,-10.02,-0.55
2301152,0.96,0.06,-0.26,0.11,0.55,-10.00,-0.50
2301185,0.96,0.06,-0.25,0.11,0.57,-10.06,-0.51
2301217,0.96,0.06,-0.25,0.11,0.62,-9.97,-0.49
2301250,0.96,0.06,-0.24,0.11,0.61,-9.97,-0.49
2301283,0.96,0.06,-0.24,0.11,0.64,-10.02,-0.55
2301316,0.96,0.06,-0.24,0.11,0.70,-10.02,-0.55
2301349,0.96,0.06,-0.23,0.11,0.80,-10.05,-0.53
2301381,0.96,0.06,-0.23,0.11,0.87,-10.04,-0.49
2301414,0.97,0.06,-0.23,0.11,0.89,-9.99,-0.47
2301447,0.97,0.06,-0.22,0.11,0.94,-9.98,-0.47
2301480,0.97,0.06,-0.22,0.11,0.86,-10.01,-0.47
2301513,0.97,0.06,-0.22,0.11,0.77,-10.01,-0.53
2301546,0.97,0.06,-0.21,0.11,0.64,-9.96,-0.53
2301579,0.97,0.06,-0.21,0.11,0.56,-9.95,-0.57
2301612,0.97,0.06,-0.21,0.10,0.57,-9.96,-0.61
2301644,0.97,0.05,-0.20,0.11,0.69,-9.98,-0.66
2301676,0.97,0.05,-0.20,0.10,1.01,-9.99,-0.65
2301709,0.97,0.05,-0.20,0.10,1.28,-10.10,-0.65
2301742,0.97,0.05,-0.20,0.10,1.15,-9.95,-0.68
2301775,0.97,0.05,-0.20,0.09,0.87,-10.06,-0.71
2301808,0.97,0.05,-0.20,0.09,0.53,-10.07,-0.73
2301841,0.97,0.05,-0.20,0.09,0.31,-9.95,-0.71
2301874,0.97,0.05,-0.20,0.08,0.14,-9.94,-0.76
2301906,0.97,0.05,-0.20,0.08,0.14,-9.87,-0.74
2301939,0.97,0.05,-0.20,0.08,0.13,-9.84,-0.78
2301972,0.98,0.05,-0.20,0.08,0.16,-9.90,-0.81
2302005,0.98,0.05,-0.20,0.08,0.09,-9.96,-0.83
2302038,0.98,0.04,-0.19,0.09,0.13,-9.91,-0.88
2302071,0.98,0.04,-0.19,0.08,0.23,-9.97,-0.96
2302103,0.98,0.04,-0.18,0.08,0.43,-10.22,-0.94
2302136,0.98,0.04,-0.18,0.08,0.45,-10.11,-0.89
2302169,0.98,0.04,-0.17,0.08,0.37,-10.08,-0.89
2302202,0.98,0.04,-0.17,0.08,0.32,-10.06,-0.87
2302235,0.98,0.05,-0.16,0.08,0.27,-9.96,-0.87
2302268,0.98,0.05,-0.15,0.08,0.59,-9.81,-0.77
2302301,0.98,0.05,-0.15,0.08,0.95,-9.60,-0.72
2302334,0.99,0.05,-0.14,0.08,1.21,-10.08,-0.73
2302367,0.99,0.05,-0.14,0.08,1.34,-10.17,-0.73
2302400,0.99,0.05,-0.14,0.08,1.12,-9.98,-0.80
2302433,0.99,0.05,-0.13,0.07,0.80,-9.99,-0.86
2302466,0.99,0.05,-0.13,0.07,0.42,-10.06,-0.89
2302499,0.99,0.05,-0.13,0.07,0.17,-10.01,-0.86
2302532,0.99,0.05,-0.13,0.07,0.16,-10.02,-0.88
2302565,0.99,0.05,-0.13,0.07,0.49,-9.98,-0.79
2302598,0.99,0.05,-0.13,0.07,0.85,-9.87,-0.76
2302631,0.99,0.05,-0.12,0.07,1.05,-9.75,-0.77
2302664,0.99,0.05,-0.12,0.07,1.00,-9.94,-0.83
2302697,0.99,0.05,-0.12,0.06,0.80,-10.08,-0.82
2302730,0.99,0.05,-0.12,0.06,0.35,-10.29,-0.88
2302763,0.99,0.05,-0.11,0.06,0.14,-10.06,-0.86
2302796,0.99,0.05,-0.11,0.06,0.10,-9.90,-0.88
2302829,0.99,0.05,-0.11,0.06,0.62,-9.84,-0.85
2302862,0.99,0.05,-0.11,0.06,1.11,-10.02,-0.77
2302895,0.99,0.05,-0.10,0.06,1.19,-10.19,-0.71
2302928,0.99,0.05,-0.10,0.05,0.68,-10.00,-0.71
2302960,0.99,0.05,-0.10,0.05,0.24,-9.86,-0.70
2302992,0.99,0.05,-0.10,0.04,0.00,-9.88,-0.71
2303024,0.99,0.05,-0.09,0.04,0.07,-9.98,-0.73
2303057,0.99,0.05,-0.09,0.05,0.24,-9.98,-0.71
2303090,0.99,0.05,-0.09,0.05,0.54,-10.01,-0.73
2303123,0.99,0.05,-0.09,0.05,0.62,-10.05,-0.78
2303156,0.99,0.05,-0.09,0.05,0.57,-10.07,-0.76
2303189,0.99,0.05,-0.09,0.05,0.45,-10.02,-0.78
2303221,0.99,0.05,-0.08,0.05,0.37,-9.98,-0.80
2303253,0.99,0.05,-0.08,0.04,0.24,-9.93,-0.79
2303286,0.99,0.05,-0.08,0.04,0.09,-9.95,-0.78
2303319,0.99,0.05,-0.08,0.04,0.10,-9.97,-0.78
2303352,1.00,0.05,-0.08,0.04,0.11,-10.04,-0.77
2303385,1.00,0.05,-0.07,0.04,0.19,-9.98,-0.72
2303418,1.00,0.05,-0.07,0.04,0.34,-10.00,-0.70
2303451,1.00,0.05,-0.07,0.04,0.34,-10.01,-0.71
2303483,1.00,0.04,-0.07,0.04,-0.14,-10.26,-0.70
2303515,1.00,0.04,-0.07,0.04,-0.67,-10.21,-0.83
2303548,0.99,0.05,-0.08,0.04,0.25,-9.86,-0.68
2303581,0.99,0.05,-0.08,0.04,0.24,-9.60,-0.72
2303614,1.00,0.05,-0.07,0.04,0.05,-9.84,-0.70
2303647,1.00,0.04,-0.07,0.04,-0.20,-10.13,-0.62
2303680,1.00,0.04,-0.06,0.04,-0.30,-9.92,-0.73
2303713,1.00,0.04,-0.06,0.04,-0.18,-10.12,-0.71
2303745,1.00,0.04,-0.06,0.04,-0.27,-9.96,-0.75
2303778,1.00,0.04,-0.05,0.03,-0.22,-10.05,-0.75
2303811,1.00,0.04,-0.05,0.03,-0.11,-10.01,-0.75
2303844,1.00,0.04,-0.05,0.03,-0.06,-10.00,-0.75
2303877,1.00,0.04,-0.04,0.03,0.01,-9.99,-0.71
2303910,1.00,0.04,-0.04,0.03,0.11,-9.97,-0.67
2303943,1.00,0.04,-0.03,0.03,0.17,-10.00,-0.64
2303976,1.00,0.04,-0.03,0.03,0.20,-9.96,-0.63
2304008,1.00,0.04,-0.03,0.03,0.16,-10.00,-0.65
2304040,1.00,0.04,-0.02,0.02,0.12,-10.03,-0.67
2304073,1.00,0.04,-0.02,0.02,0.03,-10.11,-0.67
2304105,1.00,0.04,-0.03,0.02,0.09,-10.26,-0.73
2304138,1.00,0.04,-0.03,0.02,-0.29,-10.13,-0.72
2304171,1.00,0.04,-0.04,0.02,-0.56,-9.77,-0.67
2304203,1.00,0.04,-0.05,0.02,-0.81,-9.59,-0.66
2304236,1.00,0.04,-0.05,0.02,-0.94,-9.49,-0.62
2304268,1.00,0.04,-0.04,0.01,-0.90,-9.49,-0.59
2304300,1.00,0.03,-0.03,0.01,-1.07,-10.14,-0.69
2304333,1.00,0.03,-0.02,0.01,-0.64,-10.22,-0.78
2304366,1.00,0.03,-0.01,0.01,-0.24,-10.05,-0.80
2304399,1.00,0.03,-0.01,0.00,-0.23,-10.03,-0.83
2304432,1.00,0.03,-0.00,0.00,-0.45,-10.03,-0.86
2304465,1.00,0.03,0.00,0.00,-0.42,-9.93,-0.89
2304498,1.00,0.03,0.01,-0.00,-0.36,-9.99,-0.95
2304531,1.00,0.04,0.01,-0.00,-0.33,-10.00,-0.98
2304564,1.00,0.04,0.01,-0.00,-0.27,-10.01,-0.95
2304597,1.00,0.04,0.01,-0.00,-0.28,-10.03,-0.92
2304630,1.00,0.04,0.01,-0.00,-0.15,-10.01,-0.91
2304663,1.00,0.04,0.01,-0.00,-0.11,-9.99,-0.91
2304696,1.00,0.04,0.01,-0.00,-0.13,-9.96,-0.88
2304729,1.00,0.04,0.01,-0.00,-0.16,-9.98,-0.84
2304762,1.00,0.04,0.01,-0.00,-0.11,-10.01,-0.82
2304795,1.00,0.04,0.00,-0.00,-0.10,-9.99,-0.81
2304828,1.00,0.04,0.01,-0.00,-0.10,-9.96,-0.82
2304861,1.00,0.04,0.01,-0.00,-0.14,-9.95,-0.84
2304894,1.00,0.04,0.01,-0.00,-0.09,-9.97,-0.88
2304927,1.00,0.04,0.00,-0.00,-0.07,-10.01,-0.88
2304960,1.00,0.05,0.01,-0.00,-0.10,-10.01,-0.90
2304993,1.00,0.04,0.01,-0.00,-0.21,-9.96,-0.89
2305026,1.00,0.05,0.01,-0.00,-0.24,-9.96,-0.93
2305058,1.00,0.05,0.01,-0.00,-0.27,-10.00,-0.96
2305090,1.00,0.05,0.01,-0.00,-0.07,-9.99,-0.89
2305123,1.00,0.04,0.01,-0.00,1.22,-9.66,-0.73
2305156,1.00,0.04,-0.01,-0.03,6.71,-9.01,-0.40
2305189,1.00,0.03,-0.02,-0.08,2.51,-11.22,-1.34
2305222,0.99,0.03,-0.03,-0.14,-3.74,-9.65,-2.28
2305255,0.99,0.03,-0.04,-0.16,-7.69,-8.29,-1.98
2305288,0.99,0.02,-0.03,-0.15,-5.20,-9.04,-2.26
2305320,0.99,0.01,-0.03,-0.12,-0.94,-10.84,-2.61
2305352,1.00,0.00,-0.02,-0.09,1.57,-10.51,-2.44
2305385,1.00,0.00,-0.02,-0.08,1.22,-10.20,-2.28
2305418,1.00,0.01,-0.02,-0.07,-0.04,-10.10,-2.18
2305451,1.00,0.01,-0.02,-0.07,-0.61,-9.96,-2.01
2305484,1.00,0.02,-0.01,-0.06,-0.60,-9.67,-1.88
2305517,1.00,0.03,-0.01,-0.06,-0.65,-9.55,-1.77
2305550,1.00,0.03,-0.01,-0.05,-0.78,-9.61,-1.67
2305582,1.00,0.03,-0.01,-0.05,-0.97,-9.73,-1.61
2305614,1.00,0.04,-0.01,-0.04,-1.03,-9.85,-1.59
2305647,1.00,0.04,-0.00,-0.04,-0.98,-9.92,-1.55
2305680,1.00,0.04,-0.00,-0.03,-0.80,-9.80,-1.54
2305713,1.00,0.05,0.00,-0.03,-0.72,-9.77,-1.43
2305746,1.00,0.05,0.00,-0.03,-0.63,-9.71,-1.36
2305779,1.00,0.05,0.01,-0.02,-0.69,-9.92,-1.34
2305812,1.00,0.06,0.01,-0.02,-0.68,-9.89,-1.31
2305844,1.00,0.06,0.02,-0.02,-0.65,-9.76,-1.29
2305876,1.00,0.06,0.02,-0.02,-0.76,-9.89,-1.30
2305909,1.00,0.06,0.02,-0.02,-0.92,-10.00,-1.33
2305941,1.00,0.06,0.02,-0.02,-0.90,-10.05,-1.36
2305974,1.00,0.07,0.02,-0.02,-0.80,-9.39,-1.41
2306007,1.00,0.07,0.03,-0.02,-0.63,-9.06,-1.40
2306040,0.99,0.07,0.08,-0.02,-1.05,-9.47,-1.70
2306073,0.99,0.06,0.14,-0.01,-1.89,-10.77,-1.38
2306105,0.99,0.06,0.16,-0.00,1.68,-10.07,-1.11
2306137,0.99,0.06,0.16,0.01,3.61,-9.97,-1.35
2306170,0.99,0.06,0.15,0.01,3.11,-10.04,-1.38
2306203,0.99,0.06,0.13,0.02,1.85,-9.76,-1.46
2306236,0.99,0.07,0.12,0.02,1.14,-9.87,-1.60
2306269,0.99,0.07,0.10,0.02,0.92,-9.72,-1.63
2306302,0.99,0.07,0.09,0.02,0.66,-9.62,-1.66
2306335,0.99,0.07,0.09,0.03,0.63,-9.68,-1.69
2306367,0.99,0.07,0.09,0.03,0.67,-10.01,-1.67
2306399,0.99,0.07,0.09,0.03,0.73,-10.15,-1.56
2306432,0.99,0.07,0.08,0.03,0.86,-10.00,-1.46
2306465,0.99,0.08,0.08,0.03,0.93,-9.96,-1.43
2306498,0.99,0.08,0.08,0.03,0.88,-10.05,-1.38
2306531,0.99,0.09,0.07,0.03,0.85,-11.30,-1.37
2306564,0.99,0.10,0.07,0.02,1.39,-11.69,-1.68
2306597,0.99,0.12,0.06,0.01,1.85,-10.42,-1.48
2306629,0.99,0.14,0.06,-0.01,-0.35,-7.66,-0.29
2306661,0.99,0.14,0.06,-0.02,-1.13,-8.75,0.45
2306694,0.99,0.14,0.06,-0.02,-1.28,-8.71,0.52
2306727,0.99,0.14,0.06,-0.01,-0.48,-8.50,0.48
2306760,0.99,0.12,0.05,0.01,0.65,-9.84,0.00
2306793,0.99,0.11,0.05,0.02,1.27,-10.36,-0.35
2306826,0.99,0.10,0.05,0.02,1.20,-10.45,-0.63
2306859,0.99,0.09,0.04,0.02,0.77,-10.37,-0.87
2306892,1.00,0.08,0.04,0.03,0.47,-10.34,-1.07
2306925,1.00,0.08,0.04,0.03,0.60,-10.16,-1.17
2306958,1.00,0.07,0.03,0.03,0.74,-10.13,-1.31
2306991,1.00,0.07,0.03,0.03,0.86,-10.14,-1.36
2307024,1.00,0.07,0.03,0.03,0.81,-10.18,-1.34
2307057,1.00,0.07,0.02,0.03,0.67,-10.03,-1.22
2307090,1.00,0.07,0.02,0.03,0.56,-9.92,-1.16
2307123,1.00,0.07,0.02,0.03,0.39,-10.15,-1.08
2307156,1.00,0.07,0.02,0.03,0.22,-10.14,-0.92
2307189,1.00,0.07,0.01,0.03,0.26,-9.81,-0.81
2307222,1.00,0.07,0.01,0.03,0.27,-9.83,-0.80
2307255,1.00,0.07,0.01,0.03,0.28,-10.03,-0.68
2307288,1.00,0.07,0.00,0.03,0.50,-9.85,-0.67
2307321,1.00,0.07,0.00,0.03,0.43,-9.88,-0.70
2307354,1.00,0.06,0.00,0.03,0.36,-9.95,-0.74
2307387,1.00,0.06,0.00,0.03,0.55,-9.94,-0.75
2307420,1.00,0.06,-0.00,0.03,0.57,-9.96,-0.79
2307453,1.00,0.06,-0.01,0.03,0.58,-9.76,-0.83
2307486,1.00,0.05,-0.01,0.02,0.37,-9.92,-0.89
2307519,1.00,0.05,-0.01,0.02,0.17,-10.24,-0.95
2307552,1.00,0.05,-0.01,0.02,0.22,-10.02,-0.94
2307585,1.00,0.05,-0.01,0.02,0.26,-9.98,-0.97
2307618,1.00,0.05,-0.01,0.02,0.45,-10.02,-0.88
2307651,1.00,0.05,-0.01,0.02,0.56,-10.20,-0.83
2307683,1.00,0.05,-0.01,0.02,0.55,-10.15,-0.76
2307715,1.00,0.05,-0.02,0.01,0.39,-9.36,-0.86
2307748,1.00,0.04,-0.02,0.01,0.57,-9.84,-0.87
2307781,1.00,0.04,-0.02,0.00,0.38,-10.06,-0.89
2307814,1.00,0.04,-0.02,0.00,0.51,-10.11,-0.89
2307847,1.00,0.04,-0.03,-0.00,0.68,-9.77,-0.87
2307880,1.00,0.05,-0.03,-0.00,0.48,-9.95,-0.94
2307913,1.00,0.05,-0.03,-0.00,0.50,-9.93,-0.95
2307945,1.00,0.05,-0.02,-0.01,0.40,-9.91,-0.92
2307977,1.00,0.05,-0.02,-0.01,0.37,-9.93,-0.99
2308010,1.00,0.05,-0.02,-0.01,0.36,-9.95,-1.00
2308042,1.00,0.05,-0.02,-0.01,0.55,-9.99,-0.97
2308075,1.00,0.05,-0.02,-0.01,0.60,-10.05,-0.95
2308108,1.00,0.05,-0.02,-0.01,0.67,-9.97,-0.92
2308141,1.00,0.05,-0.02,-0.01,0.65,-9.88,-0.84
2308174,1.00,0.05,-0.02,-0.01,0.49,-9.60,-0.89
2308206,1.00,0.04,-0.02,-0.01,0.17,-9.44,-0.93
2308239,1.00,0.04,-0.02,-0.00,-0.01,-9.19,-0.94
2308272,1.00,0.03,-0.01,0.00,0.12,-9.77,-1.12
2308305,1.00,0.03,-0.01,0.01,1.09,-11.28,-1.43
2308338,1.00,0.04,-0.01,0.01,2.44,-13.69,-2.10
2308371,1.00,0.06,-0.03,-0.00,2.21,-12.31,-1.99
2308404,0.99,0.10,-0.05,-0.02,-0.60,-8.48,-1.67
2308437,0.99,0.12,-0.06,-0.02,-1.09,-3.83,0.31
2308469,0.99,0.11,-0.04,-0.02,-4.75,-6.79,1.08
2308502,1.00,0.08,0.02,0.00,1.74,-8.90,0.11
2308535,1.00,0.05,0.07,0.02,2.44,-12.80,-1.22
2308568,0.99,0.03,0.10,0.03,5.52,-10.00,-1.59
2308601,1.00,0.03,0.09,0.04,5.74,-11.87,-2.48
2308634,1.00,0.04,0.06,0.03,5.51,-12.16,-2.13
2308667,1.00,0.07,0.00,0.02,4.20,-11.41,-2.39
2308700,0.99,0.11,-0.06,-0.01,2.01,-9.42,-1.59
2308733,0.99,0.12,-0.10,-0.04,-0.17,-2.17,0.40
2308765,0.99,0.10,-0.07,-0.06,-5.25,-8.40,0.75
2308798,0.99,0.08,-0.01,-0.07,-2.52,-8.85,-0.49
2308831,1.00,0.05,0.06,-0.05,0.97,-10.36,-1.65
2308864,0.99,0.02,0.10,-0.04,3.41,-8.66,-1.03
2308897,0.99,0.01,0.11,-0.03,6.81,-11.30,-2.83
2308929,1.00,0.02,0.09,-0.01,5.44,-10.86,-2.52
2308962,1.00,0.02,0.06,-0.01,3.37,-9.84,-2.21
2308994,1.00,0.03,0.03,0.00,1.81,-9.93,-2.17
2309026,1.00,0.04,0.01,0.01,1.81,-10.74,-2.00
2309059,1.00,0.06,-0.01,0.01,3.03,-12.43,-2.32
2309092,0.99,0.10,-0.03,-0.01,3.78,-11.57,-2.28
2309125,0.99,0.14,-0.05,-0.04,3.92,-7.82,-1.80
2309158,0.98,0.17,-0.06,-0.07,0.95,-5.21,0.33
2309191,0.98,0.17,-0.06,-0.10,-3.85,-7.26,1.00
2309224,0.98,0.15,-0.06,-0.10,-4.35,-8.82,0.96
2309257,0.98,0.13,-0.07,-0.09,-2.74,-8.75,0.23
2309290,0.99,0.11,-0.08,-0.06,-0.26,-10.40,-0.61
2309323,0.99,0.09,-0.08,-0.05,0.07,-11.13,-1.06
2309356,0.99,0.08,-0.08,-0.03,-0.12,-10.88,-1.04
2309389,0.99,0.08,-0.07,-0.02,-0.64,-10.47,-1.00
2309422,0.99,0.08,-0.07,-0.02,-0.88,-10.19,-0.89
2309455,0.99,0.08,-0.07,-0.01,-0.57,-9.71,-0.70
2309488,0.99,0.08,-0.07,-0.00,-0.75,-10.00,-0.63
2309521,0.99,0.08,-0.07,-0.00,-0.71,-9.77,-0.58
2309554,0.99,0.08,-0.07,0.00,-0.76,-9.91,-0.65
2309587,0.99,0.07,-0.07,0.00,-0.85,-9.93,-0.75
2309620,1.00,0.07,-0.07,0.00,-0.97,-9.98,-0.79
2309653,1.00,0.07,-0.06,0.01,-1.03,-9.98,-0.77
2309686,1.00,0.07,-0.06,0.01,-0.98,-9.98,-0.77
2309719,1.00,0.07,-0.06,0.01,-0.85,-9.91,-0.71
2309752,1.00,0.07,-0.05,0.01,-0.79,-10.05,-0.62
2309785,1.00,0.07,-0.05,0.01,-0.78,-9.97,-0.49
2309817,1.00,0.07,-0.04,0.01,-0.45,-9.88,-0.27
2309850,1.00,0.06,-0.04,0.00,3.73,-8.69,0.24
2309883,1.00,0.05,-0.06,-0.05,8.76,-9.14,0.10
2309916,0.99,0.04,-0.07,-0.13,-0.25,-11.23,-2.57
2309949,0.98,0.04,-0.09,-0.19,-12.39,-10.37,-3.32
2309982,0.98,0.03,-0.10,-0.19,-15.02,-5.08,-3.43
2310015,0.99,0.00,-0.09,-0.13,-1.61,-10.14,-3.76
2310047,0.99,-0.02,-0.10,-0.09,7.37,-12.06,-2.68
2310079,0.99,-0.02,-0.11,-0.10,5.90,-15.18,-3.56
2310112,0.98,-0.01,-0.12,-0.13,-3.52,-10.24,-3.85
2310145,0.98,-0.00,-0.12,-0.14,-7.12,-8.30,-3.24
2310178,0.99,-0.00,-0.11,-0.12,-4.94,-8.49,-2.93
2310211,0.99,-0.01,-0.10,-0.09,0.73,-9.50,-2.12
2310244,0.99,-0.01,-0.09,-0.08,0.59,-10.54,-1.99
2310277,0.99,-0.01,-0.09,-0.08,-1.36,-9.94,-2.12
2310309,0.99,-0.00,-0.09,-0.08,-3.29,-9.35,-2.21
2310341,0.99,0.00,-0.09,-0.08,-3.32,-9.21,-2.10
2310374,0.99,0.00,-0.08,-0.07,-2.75,-9.23,-2.00
2310407,0.99,0.01,-0.08,-0.06,-1.51,-9.40,-1.85
2310440,1.00,0.01,-0.07,-0.06,-1.19,-9.24,-1.75
2310473,1.00,0.01,-0.06,-0.06,-1.68,-9.58,-1.65
2310506,1.00,0.02,-0.05,-0.07,-2.45,-9.42,-1.79
2310539,1.00,0.02,-0.03,-0.07,-3.06,-9.57,-1.87
2310571,1.00,0.02,-0.02,-0.06,-2.66,-9.45,-1.81
2310604,1.00,0.02,-0.02,-0.04,-1.34,-9.59,-1.89
2310637,1.00,0.02,-0.01,-0.03,-1.08,-9.89,-1.92
2310670,1.00,0.02,-0.01,-0.02,-1.09,-9.88,-1.88
2310703,1.00,0.02,-0.00,-0.01,-1.18,-9.71,-1.84
2310736,1.00,0.02,0.00,-0.01,-1.43,-9.71,-1.92
2310769,1.00,0.03,0.01,0.00,-1.40,-9.60,-1.94
2310802,1.00,0.03,0.02,0.01,-1.33,-9.59,-1.95
2310834,1.00,0.03,0.03,0.01,-1.12,-9.55,-1.85
2310866,1.00,0.03,0.04,0.02,-0.89,-9.44,-1.81
2310899,1.00,0.04,0.05,0.03,-0.91,-9.61,-1.83
2310932,1.00,0.04,0.06,0.04,-0.75,-9.52,-1.86
2310964,1.00,0.04,0.06,0.04,-0.56,-9.83,-1.91
2310997,1.00,0.04,0.07,0.05,-0.54,-9.88,-1.88
2311030,0.99,0.04,0.07,0.06,-0.38,-9.71,-1.82
2311063,0.99,0.04,0.08,0.06,-0.09,-9.76,-1.88
2311095,0.99,0.04,0.08,0.07,0.12,-9.67,-1.88
2311127,0.99,0.04,0.09,0.07,0.17,-9.55,-1.99
2311160,0.99,0.04,0.10,0.07,0.03,-10.06,-2.02
2311193,0.99,0.04,0.10,0.07,0.15,-9.97,-2.20
2311226,0.99,0.04,0.11,0.07,0.28,-10.03,-2.28
2311259,0.99,0.05,0.11,0.08,0.82,-9.74,-2.11
2311292,0.99,0.05,0.10,0.09,1.49,-9.61,-1.97
2311325,0.99,0.05,0.10,0.09,1.63,-9.78,-1.80
2311357,0.99,0.05,0.09,0.09,1.47,-9.84,-1.78
2311389,0.99,0.05,0.08,0.08,1.05,-9.59,-1.77
2311422,0.99,0.05,0.08,0.07,0.82,-9.43,-1.79
2311455,0.99,0.05,0.08,0.06,0.50,-9.68,-1.74
2311488,0.99,0.05,0.07,0.05,0.06,-9.68,-1.74
2311521,0.99,0.05,0.08,0.04,-0.60,-9.71,-1.85
2311554,0.99,0.05,0.08,0.04,-0.88,-9.32,-2.06
2311587,0.99,0.05,0.08,0.04,-0.49,-9.69,-2.16
2311620,0.99,0.04,0.08,0.05,0.36,-9.61,-2.29
2311653,0.99,0.04,0.08,0.05,1.40,-9.50,-2.41
2311686,0.99,0.04,0.08,0.05,1.14,-9.67,-2.72
2311719,1.00,0.04,0.08,0.05,0.89,-9.93,-3.10
2311752,1.00,0.04,0.08,0.05,0.46,-9.90,-3.59
2311785,1.00,0.04,0.07,0.05,0.72,-9.97,-3.59
2311818,1.00,0.05,0.07,0.05,0.88,-9.70,-3.39
2311851,0.99,0.06,0.06,0.05,1.03,-9.81,-2.98
2311884,0.99,0.06,0.06,0.06,1.28,-9.43,-2.62
2311917,0.99,0.07,0.06,0.06,1.01,-9.81,-2.10
2311950,0.99,0.08,0.05,0.06,0.94,-9.84,-1.72
2311983,0.99,0.09,0.05,0.05,0.97,-9.71,-1.60
2312016,0.99,0.09,0.04,0.05,0.88,-9.56,-1.49
2312049,0.99,0.09,0.04,0.05,0.68,-9.71,-1.49
2312082,0.99,0.10,0.03,0.04,0.56,-9.79,-1.52
2312115,0.99,0.10,0.03,0.04,0.61,-9.71,-1.46
2312148,0.99,0.10,0.03,0.04,0.67,-9.85,-1.45
2312180,0.99,0.10,0.02,0.04,0.73,-9.87,-1.33
2312213,0.99,0.10,0.02,0.04,0.78,-9.73,-1.23
2312246,0.99,0.10,0.01,0.04,0.88,-9.81,-1.17
2312279,0.99,0.10,0.01,0.03,0.97,-9.57,-1.17
2312312,0.99,0.10,0.00,0.03,0.67,-9.59,-1.31
2312345,1.00,0.09,0.00,0.02,0.50,-9.30,-1.39
2312378,1.00,0.09,0.01,0.01,0.01,-9.94,-1.48
2312410,1.00,0.08,0.01,0.01,-0.19,-10.10,-1.57
2312442,1.00,0.08,0.00,0.00,0.01,-10.10,-1.61
2312475,1.00,0.08,-0.00,0.00,0.46,-9.82,-1.69
2312508,1.00,0.08,-0.01,0.00,0.38,-9.86,-1.67
2312541,1.00,0.08,-0.01,0.00,0.23,-9.94,-1.66
2312574,1.00,0.08,-0.02,0.00,0.25,-9.93,-1.63
2312606,1.00,0.08,-0.02,-0.00,0.23,-9.89,-1.61
2312639,1.00,0.08,-0.02,-0.00,0.21,-9.63,-1.63
2312671,1.00,0.08,-0.02,-0.00,0.04,-9.64,-1.65
2312703,1.00,0.08,-0.01,-0.01,-0.15,-9.71,-1.72
2312736,1.00,0.08,-0.01,-0.01,-0.22,-9.95,-1.72
2312768,1.00,0.08,-0.00,-0.01,-0.30,-9.92,-1.73
2312801,1.00,0.08,-0.01,-0.00,0.18,-9.79,-1.79
2312834,1.00,0.09,-0.01,-0.00,0.25,-10.07,-1.74
2312867,1.00,0.08,-0.01,-0.00,0.08,-10.34,-1.67
2312900,1.00,0.08,-0.00,0.00,-0.03,-9.73,-1.54
2312932,1.00,0.08,-0.00,0.00,-0.10,-10.15,-1.44
2312965,1.00,0.08,-0.01,0.00,-0.08,-9.91,-1.44
2312998,1.00,0.08,-0.01,0.01,0.08,-10.09,-1.51
2313031,1.00,0.08,-0.01,0.01,-0.16,-9.66,-1.57
2313064,1.00,0.08,-0.01,0.01,-0.45,-9.88,-1.53
2313097,1.00,0.08,-0.01,0.01,-0.34,-9.80,-1.56
2313129,1.00,0.08,-0.01,0.01,-0.35,-9.76,-1.55
2313162,1.00,0.08,-0.00,0.01,-0.39,-9.91,-1.55
2313194,1.00,0.08,0.00,0.01,-0.36,-9.81,-1.56
2313226,1.00,0.08,0.00,0.01,-0.19,-9.59,-1.47
2313259,1.00,0.08,0.01,0.01,-0.35,-9.96,-1.47
2313292,1.00,0.08,0.01,0.01,-0.45,-10.25,-1.41
2313324,1.00,0.08,0.01,0.01,-0.30,-9.82,-1.35
2313357,1.00,0.07,0.01,0.01,-0.24,-9.89,-1.34
2313390,1.00,0.07,0.01,0.01,-0.20,-9.74,-1.29
2313422,1.00,0.07,0.01,0.01,-0.09,-10.09,-1.33
2313454,1.00,0.07,0.01,0.01,-0.14,-9.94,-1.35
2313486,1.00,0.07,0.00,0.00,-0.14,-9.97,-1.30
2313519,1.00,0.07,0.00,0.00,-0.33,-9.91,-1.14
2313551,1.00,0.07,0.00,-0.00,-0.56,-9.76,-1.08
2313584,1.00,0.07,0.01,-0.01,-0.33,-9.55,-1.05
2313617,1.00,0.06,0.01,-0.01,-0.40,-9.89,-0.97
2313649,1.00,0.06,0.02,-0.01,-0.45,-9.80,-0.99
2313681,1.00,0.05,0.02,-0.01,-0.19,-9.69,-1.09
2313713,1.00,0.05,0.01,-0.02,-0.03,-9.58,-1.20
2313745,1.00,0.05,0.01,-0.02,-0.27,-9.95,-1.47
2313777,1.00,0.05,0.01,-0.03,-0.44,-9.97,-1.61
2313809,1.00,0.05,0.01,-0.03,-0.37,-9.84,-1.73
2313842,1.00,0.04,0.01,-0.04,-0.35,-9.64,-1.88
2313875,1.00,0.04,0.01,-0.04,-0.45,-10.17,-1.92
2313908,1.00,0.05,0.01,-0.05,-0.57,-10.24,-2.06
2313941,1.00,0.05,-0.00,-0.06,-0.28,-10.01,-2.17
2313974,1.00,0.05,-0.01,-0.06,-0.27,-9.46,-2.23
2314007,1.00,0.06,-0.01,-0.07,-0.71,-9.49,-2.12
2314040,0.99,0.06,-0.00,-0.08,-0.96,-9.59,-2.06
2314073,0.99,0.06,0.00,-0.09,-1.00,-9.61,-2.09
2314106,0.99,0.07,0.01,-0.09,-0.97,-9.77,-2.03
2314139,0.99,0.07,0.02,-0.09,-0.82,-9.73,-1.97
2314172,0.99,0.07,0.03,-0.08,-0.54,-9.67,-1.96
2314205,0.99,0.07,0.04,-0.08,0.02,-9.56,-1.90
2314238,0.99,0.07,0.05,-0.08,0.51,-10.08,-1.95
2314271,0.99,0.07,0.06,-0.07,1.16,-9.89,-1.90
2314304,0.99,0.08,0.06,-0.07,1.59,-9.86,-1.90
2314337,0.99,0.08,0.06,-0.07,1.68,-9.93,-1.85
2314370,0.99,0.08,0.06,-0.07,1.55,-9.85,-1.75
2314403,0.99,0.08,0.05,-0.07,1.23,-9.95,-1.73
2314436,0.99,0.09,0.04,-0.07,0.80,-10.05,-1.71
2314469,0.99,0.09,0.02,-0.07,1.12,-10.00,-1.78
2314502,0.99,0.09,0.01,-0.07,1.19,-9.56,-1.74
2314535,0.99,0.09,-0.00,-0.07,0.59,-9.18,-1.57
2314567,0.99,0.09,-0.01,-0.07,0.12,-9.10,-1.50
2314599,0.99,0.09,-0.00,-0.07,0.04,-9.02,-1.43
2314632,0.99,0.08,-0.00,-0.07,-0.29,-9.78,-1.53
2314664,1.00,0.08,-0.00,-0.06,-0.37,-9.99,-1.64
2314697,1.00,0.07,-0.01,-0.05,0.07,-9.84,-1.57
2314729,1.00,0.07,-0.01,-0.05,-0.12,-10.00,-1.74
2314761,1.00,0.07,-0.01,-0.04,-0.03,-10.05,-1.79
2314793,1.00,0.07,-0.02,-0.04,-0.01,-9.86,-1.78
2314825,1.00,0.06,-0.02,-0.03,-0.20,-9.63,-1.89
2314857,1.00,0.06,-0.03,-0.03,-0.66,-9.78,-2.00
2314890,1.00,0.06,-0.04,-0.04,-0.87,-9.52,-2.07
2314922,1.00,0.06,-0.05,-0.04,-1.13,-9.67,-2.21
2314955,1.00,0.05,-0.06,-0.04,-1.38,-9.65,-2.34
2314988,1.00,0.05,-0.07,-0.04,-1.76,-9.29,-2.53
2315020,0.99,0.05,-0.08,-0.05,-1.97,-9.31,-2.55
2315052,0.99,0.05,-0.09,-0.05,-2.26,-9.11,-2.72
2315084,0.99,0.05,-0.09,-0.05,-2.39,-9.06,-2.83
2315116,0.99,0.04,-0.09,-0.04,-2.62,-9.19,-2.91
2315148,0.99,0.04,-0.09,-0.04,-2.59,-9.34,-2.96
2315180,0.99,0.04,-0.09,-0.04,-2.52,-9.37,-2.92
2315212,0.99,0.04,-0.09,-0.04,-2.44,-9.18,-2.88
2315244,0.99,0.04,-0.08,-0.04,-2.45,-9.08,-2.86
2315276,1.00,0.04,-0.08,-0.04,-2.55,-9.19,-2.85
2315308,1.00,0.04,-0.08,-0.04,-2.65,-9.17,-2.87
2315340,1.00,0.05,-0.07,-0.03,-2.61,-9.08,-2.84
2315372,1.00,0.05,-0.07,-0.03,-2.56,-9.22,-2.80
2315405,1.00,0.05,-0.07,-0.03,-2.59,-9.18,-2.74
2315438,1.00,0.05,-0.07,-0.03,-2.55,-9.24,-2.67
2315470,1.00,0.06,-0.07,-0.03,-2.43,-9.14,-2.65
2315503,1.00,0.06,-0.06,-0.03,-2.41,-9.16,-2.59
2315535,1.00,0.06,-0.06,-0.02,-2.52,-9.07,-2.49
2315567,1.00,0.07,-0.06,-0.02,-2.51,-9.17,-2.47
2315600,1.00,0.07,-0.05,-0.02,-2.54,-9.27,-2.45
2315633,1.00,0.07,-0.04,-0.02,-2.50,-9.25,-2.46
2315666,1.00,0.07,-0.04,-0.01,-2.65,-9.41,-2.55
2315699,1.00,0.08,-0.03,-0.00,-2.67,-9.75,-2.56
2315732,1.00,0.08,-0.03,0.01,-2.16,-10.05,-2.51
2315765,0.99,0.09,-0.04,0.02,-1.49,-9.79,-2.49
2315797,0.99,0.10,-0.05,0.03,-1.42,-9.27,-2.24
2315829,0.99,0.11,-0.05,0.03,-2.12,-8.99,-1.89
2315862,0.99,0.11,-0.05,0.03,-3.12,-9.27,-1.52
2315895,0.99,0.12,-0.05,0.02,-3.40,-9.15,-1.36
2315928,0.99,0.12,-0.05,0.02,-3.56,-9.13,-1.16
2315961,0.99,0.13,-0.05,0.02,-3.66,-9.07,-0.95
2315994,0.99,0.13,-0.04,0.02,-3.58,-9.15,-0.81
2316027,0.99,0.13,-0.04,0.03,-3.38,-9.17,-0.68
2316059,0.99,0.13,-0.03,0.03,-3.28,-9.09,-0.68
2316091,0.99,0.13,-0.03,0.03,-3.16,-9.16,-0.75
2316124,0.99,0.13,-0.02,0.03,-2.93,-9.36,-0.79
2316157,0.99,0.13,-0.02,0.03,-2.97,-9.43,-0.86
2316190,0.99,0.12,-0.02,0.03,-2.82,-9.41,-0.95
2316223,0.99,0.12,-0.01,0.03,-2.81,-9.38,-1.05
2316256,0.99,0.12,-0.01,0.03,-2.93,-9.39,-1.18
2316289,0.99,0.12,-0.01,0.03,-3.01,-9.46,-1.21
2316322,0.99,0.11,-0.00,0.02,-2.94,-9.47,-1.30
2316355,0.99,0.11,0.00,0.02,-2.90,-9.56,-1.30
2316388,0.99,0.11,0.01,0.03,-2.82,-9.54,-1.25
2316421,0.99,0.11,0.01,0.03,-3.13,-9.48,-1.25
2316454,0.99,0.11,0.01,0.03,-3.44,-9.71,-1.14
2316487,0.99,0.11,0.01,0.03,-3.02,-9.35,-1.08
2316520,0.99,0.11,0.01,0.03,-2.87,-9.12,-1.00
2316553,0.99,0.11,0.02,0.03,-3.29,-9.13,-0.97
2316585,0.99,0.11,0.02,0.03,-3.19,-9.22,-0.84
2316617,0.99,0.11,0.03,0.04,-2.78,-9.88,-0.80
2316650,0.99,0.11,0.04,0.04,-2.71,-9.40,-0.82
2316683,0.99,0.11,0.05,0.04,-2.53,-9.70,-0.84
2316716,0.99,0.10,0.06,0.04,-2.27,-9.57,-0.88
2316749,0.99,0.10,0.07,0.04,-2.26,-9.52,-0.79
2316782,0.99,0.10,0.08,0.04,-2.08,-9.56,-0.82
2316815,0.99,0.09,0.08,0.04,-2.18,-9.62,-0.90
2316848,0.99,0.09,0.09,0.04,-2.10,-9.72,-1.00
2316880,0.99,0.08,0.10,0.04,-2.01,-9.62,-1.02
2316913,0.99,0.07,0.11,0.04,-1.92,-10.00,-1.05
2316946,0.99,0.07,0.11,0.04,-1.45,-9.89,-1.08
2316979,0.99,0.07,0.12,0.04,-1.34,-9.68,-1.18
2317012,0.99,0.06,0.12,0.04,-1.11,-9.85,-1.25
2317045,0.99,0.06,0.12,0.04,-1.02,-9.75,-1.31
2317078,0.99,0.06,0.13,0.03,-0.89,-9.88,-1.38
2317110,0.99,0.06,0.13,0.03,-0.83,-9.94,-1.41
2317142,0.99,0.06,0.13,0.03,-0.95,-9.79,-1.44
2317175,0.99,0.06,0.13,0.03,-0.81,-9.79,-1.45
2317208,0.99,0.05,0.13,0.03,-0.52,-9.76,-1.49
2317241,0.99,0.05,0.13,0.03,-0.47,-9.76,-1.51
2317274,0.99,0.05,0.12,0.03,-0.55,-10.03,-1.55
2317307,0.99,0.05,0.12,0.03,-0.52,-10.00,-1.51
2317340,0.99,0.05,0.12,0.03,-0.61,-9.77,-1.52
2317372,0.99,0.05,0.12,0.03,-0.69,-9.85,-1.59
2317405,0.99,0.05,0.12,0.03,-0.62,-9.89,-1.62
2317438,0.99,0.05,0.11,0.03,-0.66,-9.94,-1.60
2317470,0.99,0.05,0.11,0.03,-0.63,-9.77,-1.63
2317503,0.99,0.05,0.11,0.03,-0.58,-9.89,-1.56
2317536,0.99,0.06,0.10,0.03,-0.61,-9.82,-1.56
2317569,0.99,0.06,0.10,0.03,-0.58,-9.80,-1.55
2317602,0.99,0.06,0.10,0.03,-0.66,-10.07,-1.53
2317634,0.99,0.06,0.09,0.02,-0.70,-9.79,-1.48
2317666,0.99,0.06,0.09,0.02,-0.64,-9.71,-1.52
2317699,0.99,0.06,0.09,0.02,-0.75,-9.88,-1.57
2317732,0.99,0.06,0.08,0.02,-0.70,-9.83,-1.49
2317765,0.99,0.06,0.08,0.02,-0.66,-9.72,-1.54
2317798,0.99,0.06,0.08,0.02,-0.67,-9.94,-1.55
2317831,0.99,0.07,0.07,0.02,-0.45,-9.87,-1.59
2317864,1.00,0.07,0.07,0.01,-0.43,-9.92,-1.55
2317896,1.00,0.07,0.07,0.01,-0.63,-9.87,-1.50
2317928,1.00,0.07,0.07,0.01,-0.83,-9.92,-1.46
2317961,1.00,0.07,0.06,0.01,-0.63,-10.04,-1.44
2317993,1.00,0.07,0.05,0.01,-0.45,-9.95,-1.45
2318025,1.00,0.07,0.04,0.01,-0.47,-9.86,-1.42
2318057,1.00,0.07,0.04,0.01,-0.63,-9.52,-1.31
2318090,1.00,0.07,0.04,0.01,-0.93,-9.84,-1.29
2318123,1.00,0.07,0.04,0.01,-0.87,-9.99,-1.33
2318155,1.00,0.07,0.04,0.01,-0.92,-9.89,-1.36
2318187,1.00,0.07,0.04,0.00,-0.81,-9.95,-1.38
2318220,1.00,0.07,0.04,0.00,-0.82,-9.37,-1.42
2318252,1.00,0.07,0.05,0.00,-0.83,-9.59,-1.39
2318285,1.00,0.07,0.05,0.00,-1.02,-10.12,-1.31
2318318,1.00,0.07,0.05,0.00,-0.88,-10.19,-1.31
2318351,1.00,0.07,0.05,0.00,-0.38,-9.93,-1.39
2318383,1.00,0.07,0.04,0.00,-0.47,-9.80,-1.32
2318415,1.00,0.07,0.04,-0.00,-0.68,-9.89,-1.30
2318447,1.00,0.07,0.04,-0.00,-0.78,-9.73,-1.37
2318479,1.00,0.07,0.04,-0.01,-0.99,-9.60,-1.43
2318511,1.00,0.07,0.04,-0.01,-0.96,-9.96,-1.48
2318543,1.00,0.07,0.05,-0.00,-0.92,-9.98,-1.48
2318575,1.00,0.07,0.04,-0.00,-0.65,-9.98,-1.37
2318608,1.00,0.07,0.04,-0.00,-0.34,-9.67,-1.30
2318641,1.00,0.07,0.03,-0.00,-0.29,-9.76,-1.30
2318673,1.00,0.07,0.03,-0.00,-0.61,-9.91,-1.32
2318705,1.00,0.07,0.04,-0.01,-0.78,-9.69,-1.33
2318738,1.00,0.07,0.04,-0.01,-0.89,-9.94,-1.36
2318770,1.00,0.07,0.04,-0.01,-0.89,-10.04,-1.33
2318803,1.00,0.07,0.04,-0.01,-0.77,-9.87,-1.33
2318836,1.00,0.07,0.03,-0.00,-0.66,-9.95,-1.32
2318869,1.00,0.07,0.04,-0.00,-0.88,-9.76,-1.30
2318902,1.00,0.06,0.04,-0.00,-0.82,-9.90,-1.22
2318935,1.00,0.06,0.04,-0.00,-0.89,-9.99,-1.29
2318967,1.00,0.07,0.04,-0.00,-0.78,-9.89,-1.30
2318999,1.00,0.06,0.04,-0.00,-0.80,-9.78,-1.27
2319031,1.00,0.06,0.04,-0.00,-0.85,-10.00,-1.24
2319063,1.00,0.06,0.04,-0.00,-1.12,-10.26,-1.21
2319095,1.00,0.06,0.03,-0.00,-1.02,-10.17,-1.18
2319128,1.00,0.07,0.03,-0.00,-0.66,-9.48,-1.15
2319161,1.00,0.07,0.03,-0.00,-0.98,-9.42,-1.08
2319193,1.00,0.07,0.03,-0.01,-1.28,-9.45,-1.01
2319226,1.00,0.06,0.04,-0.01,-1.30,-9.64,-1.00
2319258,1.00,0.06,0.05,-0.01,-1.28,-9.68,-1.07
2319290,1.00,0.06,0.06,-0.01,-1.19,-9.83,-1.12
2319323,1.00,0.06,0.06,-0.01,-0.66,-10.01,-1.06
2319355,1.00,0.05,0.06,-0.01,-0.49,-10.23,-1.02
2319387,1.00,0.05,0.07,-0.01,-0.53,-9.99,-1.00
2319420,1.00,0.05,0.07,-0.01,-0.17,-9.52,-1.07
2319452,1.00,0.04,0.07,-0.01,-0.23,-10.01,-1.23
2319484,1.00,0.04,0.07,-0.01,-0.43,-10.05,-1.24
2319517,1.00,0.04,0.07,-0.01,-0.18,-9.82,-1.34
2319549,1.00,0.04,0.06,-0.01,-0.22,-9.87,-1.50
2319581,1.00,0.03,0.06,-0.02,-0.09,-9.72,-1.71
2319613,1.00,0.03,0.05,-0.02,-0.22,-9.99,-1.93
2319645,1.00,0.03,0.04,-0.03,-0.25,-10.04,-2.06
2319677,1.00,0.03,0.04,-0.04,-0.33,-9.70,-2.09
2319709,1.00,0.03,0.04,-0.04,-0.46,-9.80,-2.09
2319741,1.00,0.04,0.03,-0.05,-0.59,-9.69,-2.11
2319773,1.00,0.04,0.03,-0.05,-1.06,-9.53,-2.08
2319805,1.00,0.04,0.03,-0.06,-1.03,-9.81,-2.10
2319837,1.00,0.04,0.04,-0.05,-1.01,-9.72,-2.11
2319869,1.00,0.04,0.04,-0.05,-1.07,-9.83,-2.09
2319901,1.00,0.05,0.03,-0.05,-0.81,-9.88,-2.05
2319934,1.00,0.05,0.03,-0.04,-0.65,-9.76,-2.02
2319966,1.00,0.05,0.03,-0.03,-0.67,-9.64,-1.96
2319998,1.00,0.05,0.03,-0.03,-0.40,-9.56,-1.99
2320031,1.00,0.06,0.03,-0.02,-0.51,-9.71,-2.00
2320064,1.00,0.06,0.03,-0.02,-0.56,-9.78,-2.01
2320097,1.00,0.06,0.03,-0.02,-0.72,-9.61,-2.02
2320130,1.00,0.06,0.03,-0.02,-0.99,-9.58,-2.09
2320163,1.00,0.07,0.03,-0.02,-0.99,-9.61,-2.12
2320196,1.00,0.07,0.03,-0.02,-1.01,-9.76,-2.12
2320228,1.00,0.07,0.04,-0.02,-1.00,-9.70,-2.12
2320260,1.00,0.08,0.04,-0.02,-0.78,-9.73,-2.12
2320293,1.00,0.08,0.04,-0.02,-0.70,-9.70,-2.07
2320326,1.00,0.08,0.04,-0.01,-0.66,-9.70,-2.06
2320359,1.00,0.09,0.04,-0.01,-0.69,-9.71,-2.02
2320391,1.00,0.09,0.03,-0.01,-0.75,-9.66,-2.03
2320424,0.99,0.09,0.03,-0.01,-0.88,-9.76,-2.05
2320457,0.99,0.10,0.03,-0.01,-0.83,-9.69,-2.02
2320489,0.99,0.10,0.04,-0.01,-0.82,-9.69,-2.00
2320521,0.99,0.10,0.04,-0.01,-0.87,-9.74,-1.94
2320554,0.99,0.10,0.04,-0.01,-0.83,-9.68,-1.90
2320587,0.99,0.10,0.04,-0.00,-0.89,-9.70,-1.89
2320620,0.99,0.09,0.04,-0.00,-0.87,-9.66,-1.80
2320653,0.99,0.09,0.04,-0.00,-0.77,-9.66,-1.79
2320686,1.00,0.09,0.04,-0.00,-0.75,-9.71,-1.80
2320719,0.99,0.09,0.04,-0.00,-0.79,-9.68,-1.83
2320751,0.99,0.09,0.04,-0.00,-0.83,-9.67,-1.85
2320783,0.99,0.09,0.04,-0.01,-0.89,-9.79,-1.87
2320816,0.99,0.09,0.04,-0.00,-0.87,-9.75,-1.86
2320849,0.99,0.10,0.04,-0.01,-0.86,-9.67,-1.90
2320882,0.99,0.10,0.04,-0.01,-0.91,-9.66,-1.90
2320915,0.99,0.10,0.04,-0.01,-1.03,-9.63,-1.93
2320948,0.99,0.10,0.05,-0.01,-1.08,-9.67,-1.97
2320981,0.99,0.10,0.05,-0.01,-1.10,-9.64,-1.93
2321014,0.99,0.10,0.05,-0.01,-1.14,-9.64,-1.98
2321047,0.99,0.10,0.05,-0.01,-1.10,-9.71,-2.01
2321080,0.99,0.10,0.05,-0.01,-1.03,-9.71,-2.01
2321113,0.99,0.10,0.05,-0.01,-1.03,-9.67,-2.03
2321146,0.99,0.10,0.05,-0.01,-1.05,-9.67,-2.02
2321179,0.99,0.10,0.05,-0.01,-1.05,-9.64,-2.01
2321212,0.99,0.10,0.06,-0.01,-1.07,-9.66,-2.00
2321245,0.99,0.10,0.05,-0.01,-1.08,-9.64,-2.01
2321278,0.99,0.10,0.05,-0.00,-1.01,-9.69,-2.01
2321311,0.99,0.10,0.05,-0.00,-0.95,-9.71,-2.00
2321344,0.99,0.10,0.05,-0.00,-0.96,-9.81,-1.97
2321377,0.99,0.10,0.05,-0.00,-0.96,-9.72,-1.95
2321410,0.99,0.10,0.05,-0.00,-0.85,-9.55,-1.93
2321443,0.99,0.10,0.05,-0.00,-0.89,-9.70,-1.91
2321476,0.99,0.10,0.04,-0.00,-0.64,-9.59,-1.84
2321509,0.99,0.09,0.04,-0.00,-0.83,-9.74,-1.85
2321542,0.99,0.09,0.04,-0.01,-0.81,-9.60,-1.85
2321574,0.99,0.09,0.04,-0.01,-0.89,-9.69,-2.01
2321607,0.99,0.10,0.04,-0.01,-1.04,-9.80,-2.25
2321640,0.99,0.10,0.04,-0.01,-1.18,-9.82,-2.35
2321672,0.99,0.10,0.04,-0.01,-1.21,-9.72,-2.35
2321705,0.99,0.10,0.04,-0.01,-1.25,-9.62,-2.34
2321738,0.99,0.11,0.04,-0.01,-1.19,-9.52,-2.21
2321771,0.99,0.11,0.05,-0.01,-1.12,-9.62,-2.17
2321803,0.99,0.11,0.05,-0.00,-1.05,-9.64,-2.11
2321835,0.99,0.11,0.06,-0.00,-1.20,-9.86,-2.11
2321868,0.99,0.11,0.06,-0.00,-1.09,-9.71,-1.93
2321901,0.99,0.10,0.06,-0.00,-1.02,-9.63,-1.86
2321933,0.99,0.10,0.05,0.00,-0.91,-9.80,-1.79
2321965,0.99,0.10,0.05,0.00,-0.72,-9.70,-1.67
2321997,0.99,0.10,0.05,-0.00,-0.85,-9.53,-1.73
2322030,0.99,0.10,0.05,-0.00,-1.00,-9.64,-1.74
2322062,0.99,0.10,0.05,-0.01,-1.15,-9.69,-1.81
2322094,0.99,0.09,0.05,-0.01,-1.19,-9.63,-1.83
2322127,0.99,0.10,0.05,-0.01,-1.12,-9.67,-1.93
2322160,0.99,0.10,0.05,-0.01,-1.08,-9.67,-1.91
2322192,0.99,0.10,0.05,-0.01,-1.06,-9.61,-1.97
2322225,0.99,0.10,0.06,-0.01,-1.15,-9.66,-1.94
2322258,0.99,0.10,0.06,-0.01,-1.19,-9.65,-1.94
2322291,0.99,0.10,0.06,-0.01,-1.18,-9.49,-1.95
2322323,0.99,0.10,0.06,-0.01,-1.22,-9.68,-2.01
2322356,0.99,0.10,0.06,-0.01,-1.18,-9.74,-2.12
2322389,0.99,0.11,0.06,-0.01,-1.20,-9.69,-2.12
2322421,0.99,0.11,0.06,-0.01,-1.14,-9.63,-2.12
2322453,0.99,0.11,0.06,-0.01,-1.23,-9.64,-2.09
2322485,0.99,0.11,0.06,-0.01,-1.26,-9.46,-2.08
2322517,0.99,0.11,0.07,-0.01,-1.29,-9.64,-2.10
2322549,0.99,0.11,0.06,-0.01,-1.15,-9.80,-2.05
2322581,0.99,0.10,0.06,-0.01,-1.15,-9.63,-2.04
2322613,0.99,0.10,0.06,-0.01,-1.28,-9.58,-2.04
2322646,0.99,0.11,0.06,-0.01,-1.25,-9.34,-2.04
2322678,0.99,0.10,0.07,-0.01,-1.27,-9.63,-2.06
2322710,0.99,0.10,0.06,-0.00,-1.20,-9.68,-2.03
2322743,0.99,0.10,0.06,-0.00,-0.98,-9.68,-1.97
2322775,0.99,0.10,0.06,-0.00,-0.89,-9.57,-2.01
2322807,0.99,0.10,0.06,-0.00,-1.01,-9.64,-2.00
2322839,0.99,0.10,0.06,-0.01,-1.10,-9.60,-2.01
2322871,0.99,0.10,0.06,-0.01,-1.24,-9.73,-2.03
2322903,0.99,0.10,0.06,-0.01,-1.10,-9.86,-2.06
2322935,0.99,0.11,0.05,-0.01,-1.09,-9.67,-2.06
2322967,0.99,0.10,0.05,-0.01,-1.01,-9.59,-2.05
2322999,0.99,0.11,0.05,-0.01,-1.01,-9.65,-2.06
2323031,0.99,0.11,0.05,-0.01,-1.01,-9.60,-2.07
2323063,0.99,0.10,0.05,-0.01,-1.07,-9.69,-2.03
2323095,0.99,0.11,0.05,-0.01,-1.00,-9.59,-2.07
2323127,0.99,0.11,0.05,-0.01,-1.17,-9.59,-2.09
2323160,0.99,0.11,0.05,-0.01,-1.23,-9.61,-2.09
2323192,0.99,0.11,0.06,-0.01,-1.23,-9.60,-2.09
2323224,0.99,0.11,0.06,-0.01,-1.17,-9.62,-2.07
2323256,0.99,0.11,0.06,-0.00,-1.14,-9.58,-2.06
2323288,0.99,0.10,0.06,-0.00,-1.16,-9.62,-2.04
2323320,0.99,0.10,0.06,-0.00,-1.11,-9.70,-2.04
2323353,0.99,0.10,0.06,-0.00,-1.06,-9.71,-2.05
2323391,0.99,0.10,0.05,-0.00,-0.93,-9.66,-2.05
2323424,0.99,0.10,0.05,-0.00,-1.04,-9.66,-2.04
2323457,0.99,0.10,0.05,-0.00,-0.81,-9.46,-2.07
2323490,0.99,0.10,0.05,-0.01,-1.03,-9.71,-2.04
2323523,0.99,0.10,0.06,-0.01,-1.14,-9.62,-2.11
2323556,0.99,0.11,0.06,-0.01,-1.14,-9.80,-2.11
2323589,0.99,0.11,0.05,-0.01,-1.02,-9.65,-2.13
2323622,0.99,0.11,0.05,-0.01,-0.91,-9.53,-2.12
2323655,0.99,0.11,0.05,-0.01,-0.83,-9.63,-2.15
2323688,0.99,0.11,0.04,-0.01,-0.86,-9.60,-2.14
2323721,0.99,0.11,0.05,-0.01,-1.01,-9.68,-2.14
2323754,0.99,0.11,0.05,-0.01,-1.03,-9.65,-2.16
2323787,0.99,0.11,0.05,-0.01,-0.93,-9.63,-2.15
2323820,0.99,0.11,0.05,-0.00,-0.97,-9.71,-2.20
2323853,0.99,0.11,0.05,-0.01,-1.00,-9.71,-2.17
2323886,0.99,0.11,0.05,-0.01,-0.97,-9.66,-2.11
2323919,0.99,0.11,0.04,-0.00,-0.93,-9.68,-2.09
2323952,0.99,0.11,0.05,-0.01,-0.99,-9.60,-2.10
2323985,0.99,0.11,0.05,-0.01,-1.10,-9.61,-2.07
2324018,0.99,0.11,0.05,-0.01,-1.12,-9.67,-2.06
2324051,0.99,0.10,0.05,-0.00,-1.05,-9.61,-2.01
2324084,0.99,0.10,0.05,-0.00,-0.97,-9.61,-2.00
2324117,0.99,0.10,0.05,-0.00,-1.07,-9.61,-1.99
2324150,0.99,0.10,0.05,-0.01,-1.06,-9.66,-2.02
2324182,0.99,0.10,0.05,-0.01,-1.03,-9.60,-2.03
2324214,0.99,0.10,0.05,-0.01,-1.11,-9.63,-2.06
2324247,0.99,0.11,0.06,-0.01,-1.12,-9.64,-2.09
2324280,0.99,0.11,0.05,-0.01,-1.09,-9.70,-2.12
2324313,0.99,0.10,0.05,-0.01,-1.09,-9.71,-2.07
2324346,0.99,0.10,0.06,-0.01,-1.09,-9.63,-2.05
2324379,0.99,0.10,0.05,-0.01,-1.02,-9.60,-2.03
2324411,0.99,0.10,0.06,-0.01,-1.09,-9.67,-2.05
2324443,0.99,0.10,0.05,-0.01,-1.05,-9.67,-2.06
2324476,0.99,0.10,0.05,-0.01,-0.95,-9.61,-2.03
2324509,0.99,0.10,0.05,-0.00,-0.97,-9.74,-2.03
2324542,0.99,0.10,0.05,-0.01,-0.99,-9.71,-2.02
2324575,0.99,0.10,0.05,-0.00,-0.91,-9.71,-1.97
2324608,0.99,0.10,0.05,-0.00,-0.93,-9.72,-1.96
2324641,0.99,0.10,0.05,-0.01,-1.03,-9.70,-1.96
2324673,0.99,0.10,0.04,-0.01,-0.82,-9.54,-1.99
2324706,0.99,0.10,0.05,-0.01,-1.07,-9.62,-2.02
2324739,0.99,0.10,0.05,-0.01,-1.15,-9.74,-2.02
2324772,0.99,0.10,0.05,-0.01,-1.12,-9.74,-2.01
2324805,0.99,0.10,0.05,-0.01,-1.15,-9.69,-1.99
2324838,0.99,0.10,0.05,-0.01,-1.22,-9.74,-1.95
2324871,0.99,0.10,0.05,-0.01,-1.24,-9.82,-1.99
2324904,0.99,0.10,0.05,-0.01,-1.13,-9.70,-1.95
2324936,0.99,0.10,0.05,-0.01,-1.21,-9.56,-1.89
2324968,0.99,0.10,0.05,-0.01,-1.29,-9.49,-1.80
2325001,0.99,0.10,0.05,-0.01,-1.29,-9.55,-1.74
2325034,0.99,0.10,0.06,-0.01,-1.23,-9.52,-1.74
2325067,0.99,0.10,0.06,-0.01,-1.31,-9.63,-1.74
2325100,0.99,0.09,0.06,-0.01,-1.39,-9.70,-1.77
2325133,0.99,0.09,0.07,-0.01,-1.52,-9.66,-1.79
2325166,0.99,0.09,0.07,-0.01,-1.48,-9.65,-1.80
2325198,0.99,0.09,0.07,-0.01,-1.48,-9.62,-1.81
2325230,0.99,0.09,0.08,-0.01,-1.50,-9.69,-1.83
2325263,0.99,0.09,0.07,-0.01,-1.41,-9.61,-1.82
2325296,0.99,0.09,0.08,-0.01,-1.45,-9.51,-1.81
2325329,0.99,0.09,0.08,-0.01,-1.43,-9.60,-1.84
2325362,0.99,0.09,0.08,-0.01,-1.24,-9.70,-1.77
2325394,0.99,0.09,0.08,-0.01,-1.00,-9.60,-1.76
2325427,0.99,0.09,0.09,-0.01,-0.67,-9.42,-1.79
2325459,0.99,0.09,0.09,-0.01,-0.54,-9.71,-1.92
2325491,0.99,0.08,0.10,-0.02,-0.42,-10.09,-1.98
2325524,0.99,0.08,0.10,-0.02,-0.21,-9.92,-2.11
2325557,0.99,0.08,0.10,-0.02,-0.17,-9.58,-2.19
2325590,0.99,0.08,0.10,-0.03,-0.27,-9.58,-2.29
2325623,0.99,0.08,0.10,-0.03,-0.21,-9.67,-2.38
2325656,0.99,0.08,0.10,-0.03,-0.07,-9.72,-2.49
2325689,0.99,0.08,0.10,-0.03,0.01,-9.80,-2.45
2325722,0.99,0.08,0.10,-0.04,0.11,-9.85,-2.44
2325755,0.99,0.08,0.09,-0.04,0.22,-9.76,-2.35
2325788,0.99,0.08,0.09,-0.04,0.38,-9.58,-2.27
2325821,0.99,0.08,0.08,-0.05,0.37,-9.67,-2.26
2325854,0.99,0.08,0.08,-0.06,0.06,-9.62,-2.25
2325887,0.99,0.08,0.07,-0.07,-0.26,-9.52,-2.34
2325920,0.99,0.08,0.07,-0.07,-0.57,-9.65,-2.36
2325953,0.99,0.08,0.07,-0.08,-0.54,-9.59,-2.39
2325986,0.99,0.08,0.07,-0.08,-0.22,-9.81,-2.42
2326019,0.99,0.09,0.07,-0.08,0.21,-9.88,-2.33
2326052,0.99,0.09,0.07,-0.08,0.50,-9.84,-2.30
2326084,0.99,0.09,0.07,-0.08,0.58,-9.56,-2.28
2326117,0.99,0.09,0.07,-0.09,0.43,-9.58,-2.34
2326150,0.99,0.09,0.06,-0.09,0.11,-9.74,-2.34
2326183,0.99,0.09,0.06,-0.09,0.07,-9.60,-2.34
2326216,0.99,0.09,0.06,-0.09,-0.04,-9.67,-2.32
2326249,0.99,0.10,0.06,-0.09,0.06,-9.66,-2.31
2326281,0.99,0.10,0.06,-0.08,0.17,-9.69,-2.32
2326314,0.99,0.10,0.06,-0.08,0.29,-9.70,-2.22
2326347,0.99,0.10,0.06,-0.08,0.38,-9.41,-2.19
2326380,0.99,0.10,0.06,-0.07,0.45,-9.65,-2.12
2326413,0.99,0.10,0.07,-0.07,0.63,-9.78,-2.21
2326446,0.99,0.11,0.07,-0.06,0.63,-9.86,-2.20
2326479,0.99,0.11,0.08,-0.06,1.18,-9.51,-2.23
2326511,0.99,0.11,0.08,-0.06,1.14,-9.61,-2.26
2326543,0.99,0.11,0.08,-0.06,1.24,-9.51,-2.18
2326576,0.99,0.11,0.09,-0.06,1.53,-9.79,-2.27
2326609,0.99,0.12,0.09,-0.06,1.66,-9.81,-2.20
2326642,0.99,0.12,0.09,-0.06,1.68,-9.62,-2.16
2326675,0.99,0.12,0.09,-0.06,2.07,-9.64,-2.15
2326708,0.99,0.12,0.09,-0.06,2.13,-9.55,-2.05
2326741,0.99,0.13,0.10,-0.06,1.93,-9.67,-1.92
2326773,0.98,0.13,0.10,-0.06,1.84,-9.63,-1.88
2326805,0.98,0.14,0.09,-0.06,1.87,-9.65,-1.80
2326838,0.98,0.14,0.09,-0.06,1.94,-9.66,-1.79
2326871,0.98,0.14,0.08,-0.05,1.90,-9.79,-1.82
2326904,0.98,0.15,0.08,-0.05,1.83,-9.93,-1.99
2326937,0.98,0.16,0.08,-0.04,1.62,-10.09,-2.22
2326970,0.98,0.17,0.07,-0.04,1.43,-10.44,-2.51
2327003,0.98,0.19,0.06,-0.04,1.33,-10.57,-2.58
2327035,0.98,0.21,0.04,-0.03,1.11,-10.27,-2.14
2327068,0.97,0.23,0.02,-0.03,0.92,-9.93,-1.56
2327101,0.97,0.25,0.01,-0.03,0.66,-9.74,-0.74
2327134,0.96,0.27,-0.00,-0.03,0.60,-9.24,0.22
2327167,0.96,0.29,-0.01,-0.02,0.41,-8.97,1.56
2327200,0.95,0.30,-0.02,-0.02,0.33,-9.38,2.33
2327233,0.95,0.31,-0.02,-0.01,0.27,-9.05,2.86
2327266,0.95,0.32,-0.02,-0.01,0.85,-8.91,3.61
2327298,0.95,0.32,-0.02,0.00,1.41,-8.35,4.38
2327331,0.95,0.32,-0.01,0.01,1.61,-8.80,4.73
2327364,0.95,0.31,-0.00,0.02,1.62,-8.88,4.62
2327397,0.95,0.30,-0.00,0.03,0.83,-9.00,4.30
2327429,0.96,0.28,-0.00,0.06,2.70,-9.57,3.39
2327462,0.96,0.26,-0.01,0.08,4.57,-10.42,2.14
2327494,0.97,0.24,-0.02,0.10,4.46,-10.41,1.33
2327527,0.97,0.22,-0.03,0.11,4.11,-10.08,0.81
2327559,0.97,0.21,-0.04,0.10,3.84,-9.72,0.46
2327591,0.97,0.20,-0.04,0.09,3.31,-9.54,0.39
2327624,0.98,0.19,-0.04,0.07,2.77,-9.49,0.61
2327657,0.98,0.19,-0.04,0.05,2.01,-9.54,0.96
2327690,0.98,0.18,-0.04,0.03,2.02,-9.57,0.93
2327723,0.99,0.16,-0.04,0.00,1.91,-9.32,0.36
2327756,0.99,0.14,-0.03,-0.02,1.14,-9.27,-0.56
2327789,0.99,0.12,-0.02,-0.04,0.94,-9.10,-1.24
2327821,0.99,0.10,-0.01,-0.06,1.01,-8.94,-2.24
2327853,0.99,0.07,-0.01,-0.08,1.56,-9.04,-2.96
2327885,0.99,0.04,0.00,-0.09,1.81,-10.46,-3.46
2327918,0.99,0.03,0.01,-0.11,1.63,-10.25,-3.80
2327951,0.99,0.02,0.01,-0.13,1.89,-9.30,-3.75
2327984,0.99,0.02,0.01,-0.14,1.86,-9.29,-3.66
2328017,0.99,0.01,0.00,-0.15,1.99,-9.82,-3.54
2328050,0.99,0.01,-0.01,-0.15,2.24,-9.78,-3.46
2328082,0.99,0.01,-0.01,-0.16,2.15,-9.86,-3.26
2328115,0.99,0.01,-0.02,-0.16,1.85,-9.87,-3.23
2328148,0.99,0.02,-0.03,-0.16,1.81,-9.54,-3.00
2328181,0.99,0.02,-0.04,-0.16,1.79,-9.54,-2.78
2328214,0.98,0.03,-0.05,-0.16,1.90,-9.31,-2.43
2328247,0.98,0.04,-0.06,-0.16,1.93,-9.45,-2.18
2328280,0.98,0.05,-0.07,-0.16,1.83,-9.71,-2.04
2328313,0.98,0.06,-0.07,-0.15,1.65,-9.96,-1.86
2328346,0.98,0.07,-0.08,-0.15,1.49,-10.02,-1.63
2328379,0.98,0.08,-0.09,-0.14,1.40,-9.84,-1.49
2328412,0.98,0.09,-0.09,-0.13,1.32,-9.71,-1.24
2328445,0.98,0.09,-0.10,-0.12,1.40,-9.74,-1.06
2328478,0.98,0.10,-0.10,-0.11,1.15,-10.03,-0.70
2328511,0.98,0.11,-0.11,-0.10,0.98,-10.01,-0.49
2328544,0.98,0.12,-0.11,-0.09,0.96,-10.18,-0.28
2328577,0.98,0.13,-0.12,-0.08,0.87,-9.82,-0.06
2328610,0.98,0.13,-0.13,-0.07,0.84,-9.39,0.40
2328643,0.98,0.14,-0.14,-0.06,0.55,-9.61,0.66
2328676,0.98,0.14,-0.14,-0.05,0.53,-9.78,0.89
2328709,0.98,0.14,-0.15,-0.04,0.34,-9.82,1.01
2328742,0.98,0.14,-0.15,-0.03,0.31,-10.00,1.06
2328775,0.98,0.14,-0.16,-0.03,0.48,-9.74,1.07
2328808,0.98,0.13,-0.17,-0.02,0.54,-9.89,1.05
2328841,0.98,0.13,-0.17,-0.02,0.15,-9.73,0.94
2328873,0.98,0.12,-0.18,-0.02,-0.22,-9.91,0.80
2328905,0.98,0.12,-0.18,-0.02,-0.71,-10.12,0.69
2328938,0.98,0.12,-0.18,-0.02,-0.84,-10.01,0.57
2328970,0.98,0.11,-0.18,-0.02,-0.90,-9.97,0.51
2329002,0.98,0.11,-0.18,-0.02,-0.80,-9.78,0.47
2329035,0.98,0.11,-0.17,-0.02,-0.74,-9.94,0.50
2329068,0.98,0.10,-0.16,-0.03,-0.40,-10.08,0.47
2329101,0.98,0.10,-0.15,-0.03,-0.27,-10.26,0.39
2329133,0.98,0.09,-0.15,-0.03,-0.21,-10.09,0.31
2329165,0.98,0.09,-0.15,-0.04,-0.16,-10.19,0.18
2329197,0.99,0.08,-0.14,-0.04,-0.29,-9.95,0.09
2329229,0.99,0.08,-0.14,-0.05,-0.51,-9.86,-0.07
2329261,0.99,0.07,-0.14,-0.05,-0.39,-10.01,-0.12
2329294,0.99,0.07,-0.14,-0.05,-0.56,-10.06,-0.22
2329327,0.99,0.07,-0.14,-0.05,-0.64,-10.20,-0.27
2329360,0.99,0.06,-0.13,-0.05,-0.75,-10.10,-0.38
2329392,0.99,0.06,-0.13,-0.04,-0.64,-10.26,-0.43
2329424,0.99,0.05,-0.13,-0.04,-0.57,-10.35,-0.43
2329457,0.99,0.05,-0.13,-0.04,-0.41,-10.10,-0.42
2329490,0.99,0.05,-0.13,-0.03,-0.40,-9.99,-0.45
2329523,0.99,0.05,-0.12,-0.03,-0.42,-10.00,-0.45
2329556,0.99,0.05,-0.12,-0.03,-0.52,-9.98,-0.45
2329589,0.99,0.05,-0.12,-0.03,-0.49,-9.85,-0.45
2329622,0.99,0.05,-0.11,-0.02,-0.59,-9.93,-0.47
2329654,0.99,0.04,-0.11,-0.02,-0.74,-10.06,-0.48
2329686,0.99,0.04,-0.10,-0.02,-0.65,-10.12,-0.44
2329719,0.99,0.05,-0.10,-0.02,-0.58,-10.14,-0.32
2329752,0.99,0.05,-0.09,-0.02,-0.42,-10.08,-0.24
2329785,1.00,0.05,-0.09,-0.01,-0.28,-10.05,-0.17
2329818,1.00,0.05,-0.08,-0.01,-0.25,-10.08,-0.10
2329851,1.00,0.05,-0.08,-0.01,-0.03,-10.10,0.02
2329884,1.00,0.05,-0.07,-0.00,0.02,-10.02,0.03
2329916,1.00,0.05,-0.07,0.00,0.13,-9.98,0.14
2329948,1.00,0.05,-0.06,0.00,0.17,-9.95,0.17
2329981,1.00,0.05,-0.06,0.00,0.10,-9.96,0.14
2330014,1.00,0.05,-0.05,0.01,0.17,-10.11,0.09
2330047,1.00,0.05,-0.05,0.01,0.19,-10.10,0.11
2330080,1.00,0.04,-0.04,0.01,0.31,-10.06,0.11
2330112,1.00,0.04,-0.03,0.01,0.40,-10.09,0.12
2330145,1.00,0.04,-0.03,0.01,0.39,-10.01,0.12
2330177,1.00,0.03,-0.03,0.01,0.45,-10.20,0.15
2330209,1.00,0.03,-0.03,0.01,0.45,-10.05,0.14
2330242,1.00,0.03,-0.03,0.01,0.35,-9.99,0.13
2330275,1.00,0.03,-0.03,0.01,0.29,-10.00,0.15
2330308,1.00,0.03,-0.03,0.00,0.22,-10.11,0.18
2330341,1.00,0.02,-0.03,0.00,0.17,-10.12,0.18
2330374,1.00,0.02,-0.03,0.00,0.14,-9.93,0.17
2330407,1.00,0.02,-0.03,0.00,0.03,-9.91,0.19
2330440,1.00,0.02,-0.03,-0.00,0.07,-10.09,0.17
2330473,1.00,0.01,-0.03,-0.00,-0.04,-10.12,0.22
2330506,1.00,0.01,-0.02,-0.00,0.11,-10.04,0.28
2330539,1.00,0.01,-0.02,-0.00,0.45,-10.01,0.33
2330572,1.00,0.00,-0.02,-0.01,0.27,-9.94,0.26
2330605,1.00,-0.00,-0.02,-0.01,0.33,-10.09,0.21
2330638,1.00,-0.01,-0.02,-0.02,0.23,-9.93,0.14
2330671,1.00,-0.01,-0.01,-0.02,0.11,-10.05,0.05
2330704,1.00,-0.01,-0.01,-0.02,0.09,-10.11,0.00
2330737,1.00,-0.01,-0.01,-0.02,0.11,-10.08,-0.05
2330770,1.00,-0.01,-0.01,-0.02,0.10,-10.08,-0.08
2330803,1.00,-0.01,-0.01,-0.02,0.07,-10.07,-0.05
2330836,1.00,-0.01,-0.01,-0.02,0.02,-10.04,-0.15
2330869,1.00,-0.01,-0.01,-0.02,-0.07,-10.03,-0.18
2330902,1.00,-0.01,-0.01,-0.02,0.01,-10.06,-0.14
2330935,1.00,-0.00,-0.01,-0.02,-0.08,-10.05,-0.27
2330968,1.00,-0.00,-0.01,-0.02,0.08,-10.14,-0.26
2331000,1.00,-0.00,-0.01,-0.02,0.09,-10.06,-0.32
2331033,1.00,0.00,-0.01,-0.02,0.09,-10.03,-0.34
2331066,1.00,0.00,-0.00,-0.02,-0.01,-10.05,-0.38
2331099,1.00,0.01,-0.00,-0.01,-0.02,-10.17,-0.39
2331132,1.00,0.01,-0.00,-0.01,-0.09,-10.18,-0.33
2331165,1.00,0.01,-0.00,-0.00,0.05,-10.20,-0.31
2331198,1.00,0.01,-0.01,0.00,0.10,-10.07,-0.22
2331230,1.00,0.01,-0.01,0.01,0.00,-10.01,-0.19
2331262,1.00,0.01,-0.00,0.01,-0.08,-9.99,-0.20
2331295,1.00,0.01,-0.00,0.01,-0.26,-10.04,-0.12
2331328,1.00,0.01,-0.00,0.01,-0.29,-10.00,-0.08
2331361,1.00,0.01,-0.00,0.01,-0.31,-10.05,-0.03
2331394,1.00,0.01,0.00,0.01,-0.27,-10.06,-0.00
2331426,1.00,0.01,0.00,0.01,-0.24,-10.01,-0.01
2331459,1.00,0.01,0.00,0.02,-0.27,-9.98,0.02
2331491,1.00,0.01,0.00,0.02,-0.29,-10.04,0.02
2331523,1.00,0.01,0.01,0.01,-0.33,-10.03,0.06
2331556,1.00,0.01,0.01,0.01,-0.37,-10.03,0.08
2331589,1.00,0.00,0.01,0.01,-0.35,-10.02,0.11
2331622,1.00,0.00,0.01,0.01,-0.35,-10.02,0.14
2331655,1.00,-0.00,0.01,0.01,-0.32,-10.13,0.13
2331688,1.00,-0.00,0.01,0.01,-0.31,-10.03,0.13
2331721,1.00,-0.00,0.01,0.01,-0.28,-9.98,0.09
2331753,1.00,-0.00,0.02,0.00,-0.37,-10.00,0.09
2331785,1.00,-0.00,0.02,0.00,-0.38,-9.99,0.09
2331818,1.00,-0.00,0.02,-0.00,-0.43,-10.02,0.09
2331851,1.00,-0.01,0.02,-0.00,-0.34,-10.05,0.13
2331883,1.00,-0.00,0.02,-0.00,-0.38,-9.98,0.07
2331916,1.00,-0.00,0.02,0.00,-0.45,-10.04,0.08
2331949,1.00,-0.00,0.02,0.00,-0.52,-10.10,0.03
2331982,1.00,-0.00,0.02,0.00,-0.48,-10.09,0.03
2332014,1.00,-0.00,0.02,0.00,-0.40,-10.04,0.04
2332046,1.00,-0.00,0.02,0.00,-0.36,-9.98,0.05
2332079,1.00,-0.00,0.02,0.00,-0.32,-10.03,0.06
2332112,1.00,-0.00,0.01,0.00,-0.27,-9.96,0.03
2332145,1.00,-0.00,0.02,-0.00,-0.38,-10.07,0.08
2332177,1.00,-0.00,0.03,-0.00,-0.50,-9.99,0.07
2332210,1.00,-0.00,0.03,-0.00,-0.28,-10.15,0.11
2332243,1.00,-0.00,0.02,-0.00,-0.18,-10.04,0.08
2332275,1.00,-0.00,0.02,-0.00,-0.07,-10.06,0.07
2332307,1.00,-0.01,0.02,-0.00,-0.09,-9.96,0.08
2332340,1.00,-0.00,0.01,-0.00,-0.18,-9.97,0.05
2332373,1.00,-0.00,0.01,-0.00,-0.17,-10.13,0.00
2332406,1.00,-0.00,0.01,-0.00,-0.16,-10.01,-0.05
2332439,1.00,0.00,0.01,-0.00,-0.20,-10.01,-0.05
2332472,1.00,0.00,0.01,-0.00,-0.25,-10.06,-0.07
2332505,1.00,0.00,0.01,-0.00,-0.25,-10.02,-0.11
2332537,1.00,0.00,0.01,-0.00,-0.25,-10.05,-0.11
2332569,1.00,0.00,0.01,-0.00,-0.22,-10.07,-0.10
2332602,1.00,0.01,0.01,-0.00,-0.19,-10.16,-0.14
2332635,1.00,0.01,0.01,-0.00,-0.23,-10.07,-0.12
2332667,1.00,0.01,0.01,-0.00,-0.24,-9.99,-0.14
2332699,1.00,0.01,0.01,-0.00,-0.35,-9.97,-0.17
2332732,1.00,0.01,0.02,-0.00,-0.44,-9.93,-0.23
2332765,1.00,0.01,0.02,-0.00,-0.41,-10.01,-0.24
2332798,1.00,0.01,0.02,-0.00,-0.38,-10.04,-0.31
2332831,1.00,0.01,0.02,-0.00,-0.38,-10.21,-0.34
2332864,1.00,0.01,0.02,-0.00,-0.33,-9.99,-0.31
2332897,1.00,0.01,0.02,-0.00,-0.17,-10.13,-0.37
2332930,1.00,0.02,0.01,0.00,-0.21,-9.99,-0.36
2332963,1.00,0.02,0.02,-0.00,-0.32,-10.05,-0.33
2332996,1.00,0.02,0.01,-0.00,-0.27,-9.97,-0.35
2333029,1.00,0.02,0.02,-0.00,-0.32,-10.04,-0.35
2333062,1.00,0.02,0.02,-0.00,-0.28,-10.11,-0.30
2333095,1.00,0.01,0.01,-0.00,-0.23,-10.03,-0.25
2333128,1.00,0.01,0.01,-0.00,-0.07,-10.04,-0.29
2333161,1.00,0.02,0.01,-0.00,-0.12,-9.99,-0.34
2333194,1.00,0.02,0.01,-0.00,-0.25,-10.01,-0.38
2333227,1.00,0.02,0.01,-0.00,-0.24,-9.99,-0.39
2333260,1.00,0.02,0.01,-0.00,-0.26,-10.13,-0.45
2333293,1.00,0.02,0.01,-0.00,-0.39,-9.97,-0.43
2333326,1.00,0.02,0.01,-0.00,-0.33,-9.92,-0.48
2333358,1.00,0.02,0.02,0.00,-0.49,-10.27,-0.44
2333391,1.00,0.02,0.02,0.00,-0.39,-10.14,-0.35
2333424,1.00,0.02,0.02,0.00,-0.36,-9.89,-0.37
2333457,1.00,0.02,0.02,0.00,-0.21,-9.78,-0.41
2333490,1.00,0.02,0.01,0.00,-0.00,-9.91,-0.39
2333523,1.00,0.02,0.01,0.00,-0.14,-10.49,-0.46
2333556,1.00,0.02,0.01,0.00,0.21,-10.06,-0.30
2333588,1.00,0.02,0.01,0.00,-0.03,-9.99,-0.33
2333620,1.00,0.02,0.00,-0.00,-0.09,-10.04,-0.32
2333653,1.00,0.01,0.00,-0.00,-0.15,-9.92,-0.25
2333686,1.00,0.01,0.01,-0.00,-0.25,-10.02,-0.20
2333719,1.00,0.01,0.01,-0.00,-0.31,-9.96,-0.24
2333752,1.00,0.01,0.01,-0.00,-0.37,-9.99,-0.28
2333785,1.00,0.02,0.01,-0.00,-0.22,-9.99,-0.33
2333818,1.00,0.02,0.01,0.00,-0.38,-10.08,-0.37
2333851,1.00,0.02,0.01,0.00,-0.18,-10.07,-0.30
2333883,1.00,0.02,0.01,0.00,-0.11,-10.08,-0.40
2333916,1.00,0.02,0.01,0.00,-0.24,-10.09,-0.44
2333948,1.00,0.02,0.01,0.00,-0.45,-10.02,-0.48
2333981,1.00,0.02,0.02,0.00,-0.34,-10.08,-0.45
2334014,1.00,0.02,0.02,0.00,-0.32,-9.99,-0.40
2334047,1.00,0.02,0.02,-0.00,-0.31,-9.99,-0.30
2334080,1.00,0.01,0.02,-0.00,-0.31,-9.97,-0.28
2334112,1.00,0.02,0.02,0.00,-0.30,-10.07,-0.31
2334144,1.00,0.01,0.02,0.00,-0.32,-10.01,-0.23
2334177,1.00,0.01,0.02,0.00,-0.13,-9.95,-0.27
2334210,1.00,0.01,0.02,0.00,0.00,-9.95,-0.29
2334243,1.00,0.01,0.02,0.00,0.00,-10.03,-0.33
2334276,1.00,0.01,0.02,0.00,-0.02,-10.11,-0.34
2334309,1.00,0.01,0.02,0.00,0.19,-10.19,-0.41
2334342,1.00,0.01,0.02,0.01,0.26,-10.14,-0.41
2334374,1.00,0.02,0.01,0.01,0.15,-10.08,-0.42
2334407,1.00,0.02,0.01,0.01,0.33,-9.92,-0.39
2334440,1.00,0.02,0.01,0.01,0.19,-10.15,-0.36
2334473,1.00,0.02,0.01,0.01,0.19,-10.21,-0.31
2334506,1.00,0.02,0.00,0.01,0.23,-10.07,-0.29
2334539,1.00,0.02,0.00,0.01,0.47,-10.04,-0.25
2334572,1.00,0.02,-0.00,0.01,0.41,-9.98,-0.23
2334605,1.00,0.02,-0.01,0.01,0.41,-9.97,-0.19
2334637,1.00,0.02,-0.01,0.01,0.35,-10.09,-0.19
2334669,1.00,0.01,-0.01,0.01,0.23,-10.08,-0.25
2334702,1.00,0.01,-0.01,0.01,0.22,-10.11,-0.24
2334735,1.00,0.01,-0.01,0.01,0.10,-10.14,-0.25
2334768,1.00,0.01,-0.01,0.01,-0.01,-10.07,-0.25
2334801,1.00,0.02,-0.02,0.00,0.05,-9.90,-0.29
2334834,1.00,0.02,-0.02,0.00,0.00,-9.91,-0.31
2334867,1.00,0.02,-0.02,0.00,-0.18,-10.18,-0.19
2334899,1.00,0.02,-0.02,0.00,-0.35,-10.07,-0.14
2334931,1.00,0.02,-0.02,0.00,-0.45,-9.81,-0.07
2334964,1.00,0.02,-0.02,-0.00,-0.60,-9.94,-0.04
2334997,1.00,0.02,-0.02,-0.00,-0.73,-10.15,-0.02
2335030,1.00,0.02,-0.02,-0.00,-0.80,-10.07,-0.04
2335063,1.00,0.02,-0.02,-0.00,-0.80,-10.02,-0.01
2335096,1.00,0.01,-0.01,-0.00,-0.70,-9.98,-0.03
2335129,1.00,0.01,-0.01,-0.00,-0.71,-10.13,-0.00
2335162,1.00,0.01,-0.00,-0.00,-0.46,-10.03,-0.03
2335195,1.00,0.01,0.00,-0.00,-0.34,-9.98,-0.05
2335228,1.00,0.01,0.01,-0.00,-0.29,-9.91,-0.07
2335261,1.00,0.00,0.01,-0.00,-0.18,-10.03,-0.14
2335294,1.00,0.00,0.02,-0.00,-0.46,-10.34,-0.21
2335327,1.00,0.01,0.02,-0.00,-0.34,-10.01,-0.20
2335360,1.00,0.01,0.01,-0.00,-0.27,-9.95,-0.21
2335393,1.00,0.01,0.01,-0.00,-0.40,-9.97,-0.13
2335426,1.00,0.01,0.02,0.00,-0.52,-10.02,-0.15
2335458,1.00,0.01,0.02,0.00,-0.48,-10.04,-0.20
2335491,1.00,0.01,0.02,0.00,-0.55,-10.07,-0.15
2335524,1.00,0.01,0.02,0.00,-0.36,-10.06,-0.18
2335557,1.00,0.01,0.02,0.00,-0.28,-10.11,-0.11
2335590,1.00,0.01,0.02,0.01,-0.19,-10.14,-0.07
2335623,1.00,0.01,0.02,0.01,-0.02,-10.03,-0.11
2335656,1.00,0.01,0.02,0.00,-0.02,-9.95,-0.06
2335689,1.00,0.01,0.02,0.00,0.02,-10.01,-0.05
2335721,1.00,0.01,0.01,0.00,-0.13,-10.05,-0.05
2335754,1.00,0.00,0.02,0.00,-0.33,-9.97,-0.06
2335787,1.00,0.01,0.02,0.00,-0.53,-10.00,-0.11
2335820,1.00,0.01,0.02,0.00,-0.53,-10.00,-0.11
2335853,1.00,0.01,0.02,0.01,-0.45,-10.05,-0.13
2335886,1.00,0.01,0.02,0.01,-0.46,-10.02,-0.13
2335919,1.00,0.01,0.03,0.02,-0.44,-10.03,-0.13
2335951,1.00,0.01,0.03,0.02,-0.27,-10.15,-0.10
2335983,1.00,0.01,0.03,0.03,-0.27,-10.27,-0.04
2336015,1.00,0.01,0.02,0.04,0.04,-10.37,-0.03
2336048,1.00,0.01,0.01,0.05,0.74,-10.22,-0.10
2336081,1.00,0.01,-0.01,0.06,1.03,-9.66,-0.11
2336114,1.00,0.01,-0.02,0.06,0.32,-9.99,-0.01
2336147,1.00,0.01,-0.02,0.05,-0.39,-10.02,0.11
2336180,1.00,0.01,-0.02,0.05,-0.80,-9.88,0.13
2336212,1.00,0.01,-0.02,0.04,-0.96,-9.96,0.16
2336244,1.00,0.01,-0.01,0.04,-1.00,-9.93,0.22
2336277,1.00,0.01,-0.00,0.04,-0.96,-9.97,0.22
2336310,1.00,0.01,0.01,0.04,-0.89,-10.00,0.22
2336343,1.00,0.01,0.02,0.03,-0.78,-10.46,0.32
2336376,1.00,0.00,0.02,0.03,-0.28,-10.30,0.39
2336409,1.00,0.00,0.03,0.03,0.66,-10.56,0.31
2336442,1.00,0.01,0.03,0.02,0.87,-10.13,0.21
2336474,1.00,0.01,0.03,0.02,0.64,-9.65,0.09
2336507,1.00,0.01,0.03,0.01,0.45,-9.57,-0.10
2336540,1.00,0.01,0.02,0.00,0.11,-10.21,-0.06
2336573,1.00,0.01,0.02,0.00,0.00,-10.43,0.04
2336606,1.00,0.01,0.01,0.00,-0.16,-10.35,0.18
2336639,1.00,0.01,0.01,0.00,-0.37,-10.00,0.27
2336672,1.00,0.01,0.00,0.01,-1.26,-9.49,0.37
2336705,1.00,0.01,0.00,0.02,-2.25,-9.36,0.28
2336738,1.00,0.01,0.01,0.06,-2.65,-9.15,-0.13
2336770,0.99,0.00,0.02,0.10,-2.57,-9.25,-0.52
2336803,0.99,-0.00,0.02,0.16,-1.94,-10.06,-1.18
2336836,0.97,-0.00,0.03,0.23,-0.08,-10.38,-1.32
2336869,0.95,-0.00,0.03,0.30,1.23,-10.60,-1.12
2336901,0.94,-0.00,0.03,0.35,2.73,-10.05,-0.59
2336934,0.92,-0.00,0.04,0.39,3.35,-10.03,-0.10
2336967,0.91,-0.00,0.04,0.42,3.06,-9.94,0.10
2336999,0.90,-0.00,0.04,0.43,2.27,-10.05,0.05
2337031,0.90,-0.00,0.04,0.43,1.24,-10.38,-0.02
2337064,0.90,-0.00,0.04,0.43,0.95,-10.34,0.05
2337097,0.90,-0.00,0.04,0.43,0.78,-10.22,0.21
2337130,0.90,-0.00,0.05,0.43,0.95,-10.26,0.36
2337163,0.90,-0.00,0.04,0.43,0.92,-9.99,0.41
2337196,0.90,0.00,0.04,0.42,0.51,-10.03,0.23
2337229,0.90,0.00,0.04,0.42,0.57,-9.75,0.20
2337261,0.90,0.00,0.04,0.43,0.92,-9.95,0.21
2337293,0.90,0.01,0.03,0.43,1.33,-9.82,0.34
2337326,0.91,0.00,0.03,0.42,1.40,-9.84,0.44
2337359,0.91,0.00,0.03,0.41,1.62,-9.90,0.52
2337392,0.92,-0.00,0.02,0.39,2.10,-9.29,0.49
2337425,0.93,-0.01,0.02,0.37,2.87,-9.38,0.29
2337458,0.94,-0.03,0.02,0.33,2.80,-9.65,-0.34
2337491,0.96,-0.04,0.02,0.28,2.65,-9.92,-1.02
2337524,0.97,-0.06,0.02,0.23,1.98,-10.35,-1.57
2337557,0.98,-0.07,0.02,0.17,0.96,-10.25,-1.90
2337590,0.99,-0.08,0.02,0.12,0.79,-10.46,-1.81
2337623,0.99,-0.09,0.01,0.08,0.34,-9.99,-1.73
2337656,0.99,-0.09,0.01,0.04,0.60,-9.74,-1.68
2337688,0.99,-0.10,0.00,0.01,0.73,-9.87,-1.58
2337721,0.99,-0.10,0.00,-0.01,0.74,-10.13,-1.55
2337754,0.99,-0.11,0.00,-0.03,0.96,-10.26,-1.53
2337787,0.99,-0.11,0.00,-0.04,1.44,-10.09,-1.50
2337820,0.99,-0.10,-0.00,-0.04,1.81,-9.87,-1.50
2337853,0.99,-0.10,-0.01,-0.04,1.95,-9.80,-1.41
2337886,0.99,-0.10,-0.02,-0.04,2.16,-9.95,-1.32
2337919,0.99,-0.10,-0.02,-0.04,2.14,-9.64,-1.21
2337952,0.99,-0.09,-0.03,-0.05,1.81,-9.95,-1.13
2337985,0.99,-0.09,-0.03,-0.05,1.68,-9.81,-1.12
2338018,0.99,-0.08,-0.04,-0.05,1.54,-9.81,-1.05
2338051,1.00,-0.08,-0.04,-0.04,1.28,-9.72,-1.02
2338083,1.00,-0.07,-0.04,-0.04,1.30,-9.83,-1.02
2338116,1.00,-0.07,-0.04,-0.03,1.31,-9.94,-0.95
2338149,1.00,-0.06,-0.04,-0.03,1.04,-10.13,-1.00
2338182,1.00,-0.06,-0.05,-0.02,0.70,-9.89,-0.94
2338215,1.00,-0.05,-0.04,-0.01,0.14,-10.19,-1.07
2338248,1.00,-0.04,-0.04,0.01,-0.74,-10.50,-1.26
2338281,1.00,-0.03,-0.03,0.04,-1.74,-10.20,-1.46
2338313,1.00,-0.02,-0.02,0.08,-1.56,-9.18,-1.69
2338345,0.99,-0.01,-0.00,0.14,-0.45,-9.21,-1.84
2338378,0.98,0.00,0.01,0.20,1.16,-8.73,-1.95
2338411,0.97,0.00,0.01,0.26,3.29,-8.62,-1.97
2338443,0.95,-0.00,0.01,0.31,4.58,-9.56,-1.65
2338476,0.94,-0.00,0.02,0.35,5.70,-10.29,-1.35
2338509,0.93,-0.00,0.02,0.37,6.42,-10.20,-1.00
2338542,0.93,-0.01,0.02,0.36,6.60,-9.76,-0.83
2338574,0.95,-0.01,0.02,0.32,5.69,-9.75,-1.12
2338606,0.96,-0.01,0.02,0.28,4.78,-9.74,-1.58
2338639,0.98,-0.01,0.01,0.22,4.02,-9.63,-1.77
2338672,0.99,-0.02,0.00,0.16,3.15,-9.59,-1.67
2338705,1.00,-0.02,-0.01,0.10,2.44,-9.50,-1.47
2338738,1.00,-0.02,-0.01,0.04,1.66,-9.42,-1.38
2338771,1.00,-0.02,-0.02,-0.01,1.24,-9.90,-1.16
2338803,1.00,-0.02,-0.02,-0.05,0.56,-9.78,-0.95
2338835,1.00,-0.02,-0.03,-0.07,0.56,-9.47,-0.78
2338867,1.00,-0.02,-0.03,-0.09,1.01,-9.44,-0.64
2338900,1.00,-0.03,-0.03,-0.09,1.56,-9.49,-0.56
2338933,1.00,-0.03,-0.03,-0.08,2.05,-9.96,-0.60
2338965,1.00,-0.03,-0.04,-0.08,2.60,-10.13,-0.64
2338998,1.00,-0.04,-0.04,-0.07,3.36,-10.15,-0.70
2339031,1.00,-0.04,-0.05,-0.08,3.14,-10.08,-0.64
2339064,0.99,-0.03,-0.06,-0.08,2.56,-9.77,-0.58
2339096,0.99,-0.03,-0.06,-0.09,2.17,-9.82,-0.58
2339128,0.99,-0.03,-0.07,-0.09,1.65,-9.82,-0.56
2339161,0.99,-0.02,-0.07,-0.09,1.57,-9.60,-0.42
2339194,0.99,-0.02,-0.08,-0.09,1.59,-9.77,-0.28
2339227,0.99,-0.02,-0.09,-0.09,1.81,-9.99,-0.19
2339260,0.99,-0.02,-0.09,-0.09,1.83,-10.14,-0.18
2339293,0.99,-0.01,-0.10,-0.09,1.78,-10.00,-0.12
2339326,0.99,-0.01,-0.11,-0.08,1.66,-9.97,-0.03
2339358,0.99,-0.01,-0.11,-0.09,1.40,-9.74,-0.08
2339390,0.99,-0.01,-0.12,-0.09,1.31,-9.70,-0.07
2339423,0.99,-0.01,-0.13,-0.09,1.00,-9.90,-0.04
2339456,0.99,-0.01,-0.13,-0.09,0.82,-9.62,0.01
2339489,0.99,-0.01,-0.13,-0.09,0.51,-9.69,0.11
2339522,0.99,-0.01,-0.12,-0.10,0.33,-10.00,0.09
2339555,0.99,-0.01,-0.11,-0.10,0.56,-10.16,0.05
2339588,0.99,-0.02,-0.11,-0.10,0.79,-10.09,0.15
2339621,0.99,-0.02,-0.10,-0.11,1.00,-9.95,0.05
2339653,0.99,-0.02,-0.09,-0.12,1.03,-9.71,-0.06
2339686,0.99,-0.02,-0.08,-0.13,1.22,-9.74,-0.16
2339719,0.99,-0.02,-0.07,-0.13,1.40,-9.64,-0.24
2339752,0.99,-0.02,-0.06,-0.14,2.06,-9.33,-0.38
2339785,0.99,-0.03,-0.05,-0.16,2.37,-9.38,-0.33
2339818,0.98,-0.04,-0.04,-0.17,2.62,-9.77,-0.56
2339851,0.98,-0.04,-0.03,-0.19,2.26,-10.46,-0.98
2339884,0.98,-0.05,-0.03,-0.21,1.94,-10.18,-1.14
2339917,0.97,-0.05,-0.02,-0.22,2.00,-10.08,-1.15
2339950,0.97,-0.05,-0.02,-0.22,1.87,-10.31,-1.14
2339983,0.98,-0.05,-0.02,-0.21,2.49,-10.02,-1.26
2340016,0.98,-0.05,-0.02,-0.20,2.97,-9.56,-1.31
2340049,0.98,-0.04,-0.03,-0.19,2.89,-9.50,-1.33
2340082,0.98,-0.04,-0.04,-0.18,2.83,-9.55,-1.29
2340115,0.99,-0.04,-0.04,-0.16,3.19,-9.49,-1.21
2340148,0.99,-0.03,-0.05,-0.15,3.12,-9.70,-1.13
2340181,0.99,-0.03,-0.05,-0.14,3.08,-9.73,-1.09
2340214,0.99,-0.02,-0.06,-0.12,3.00,-9.64,-1.05
2340247,0.99,-0.02,-0.06,-0.11,2.71,-9.94,-1.04
2340280,0.99,-0.01,-0.07,-0.10,2.55,-9.68,-0.92
2340313,0.99,-0.01,-0.08,-0.09,2.27,-9.91,-0.87
2340346,0.99,-0.00,-0.08,-0.08,2.12,-9.82,-0.78
2340379,0.99,0.00,-0.09,-0.07,2.09,-9.95,-0.64
2340412,0.99,0.01,-0.10,-0.05,1.84,-9.84,-0.64
2340444,0.99,0.01,-0.11,-0.04,1.66,-9.90,-0.55
2340477,0.99,0.02,-0.11,-0.03,1.58,-9.80,-0.52
2340510,0.99,0.02,-0.11,-0.02,1.45,-9.87,-0.43
2340543,0.99,0.02,-0.11,-0.02,1.37,-9.87,-0.26
2340576,0.99,0.03,-0.11,-0.01,1.22,-9.93,-0.22
2340609,0.99,0.03,-0.11,-0.01,1.16,-10.01,-0.07
2340642,0.99,0.03,-0.11,-0.01,1.01,-9.88,-0.02
2340674,0.99,0.03,-0.11,-0.00,1.02,-9.99,0.02
2340706,0.99,0.03,-0.11,-0.00,1.05,-9.98,0.11
2340739,0.99,0.03,-0.11,-0.00,0.94,-9.76,0.15
2340772,0.99,0.03,-0.10,-0.00,0.92,-9.69,0.18
2340804,1.00,0.03,-0.10,-0.00,0.84,-10.00,0.11
2340837,1.00,0.03,-0.09,-0.00,0.99,-9.99,0.12
2340870,1.00,0.02,-0.09,0.00,1.20,-10.10,0.07
2340903,1.00,0.02,-0.09,0.00,1.19,-10.30,0.03
2340935,1.00,0.02,-0.09,0.00,1.12,-10.18,0.06
2340967,1.00,0.02,-0.10,0.00,1.20,-9.58,0.02
2341000,1.00,0.02,-0.09,-0.00,0.64,-10.16,-0.00
2341033,1.00,0.02,-0.09,-0.00,0.65,-10.09,0.04
2341066,1.00,0.02,-0.09,0.00,0.49,-10.14,-0.07
2341099,1.00,0.01,-0.09,0.00,0.98,-10.29,-0.06
2341132,1.00,0.01,-0.09,0.01,1.12,-10.09,-0.04
2341165,1.00,0.01,-0.09,0.01,0.84,-10.01,0.01
2341197,1.00,0.01,-0.09,0.01,0.63,-9.82,0.06
2341229,1.00,0.01,-0.09,0.02,0.36,-9.83,0.07
2341262,1.00,0.01,-0.09,0.02,0.20,-9.92,0.08
2341295,1.00,0.00,-0.09,0.02,0.06,-9.94,0.11
2341328,1.00,0.00,-0.08,0.03,0.35,-10.30,0.00
2341361,1.00,0.00,-0.09,0.03,0.90,-10.16,-0.10
2341394,0.99,-0.00,-0.09,0.04,0.91,-10.07,-0.16
2341426,0.99,-0.00,-0.10,0.04,0.64,-9.75,-0.19
2341458,0.99,-0.00,-0.10,0.04,0.29,-9.68,-0.24
2341490,0.99,-0.01,-0.09,0.04,-0.24,-10.24,-0.34
2341523,1.00,-0.01,-0.09,0.04,-0.12,-10.29,-0.44
2341556,1.00,-0.01,-0.09,0.04,-0.02,-10.30,-0.53
2341589,1.00,-0.01,-0.09,0.03,0.01,-10.06,-0.54
2341622,1.00,-0.01,-0.09,0.03,-0.76,-10.05,-0.64
2341655,0.99,-0.01,-0.10,0.03,-0.66,-10.10,-0.58
2341688,0.99,-0.00,-0.10,0.03,-0.49,-9.81,-0.62
2341720,1.00,-0.00,-0.09,0.03,-0.60,-9.80,-0.61
2341752,1.00,-0.00,-0.09,0.03,-0.61,-10.15,-0.57
2341784,1.00,-0.00,-0.08,0.03,-0.29,-10.23,-0.38
2341817,1.00,0.00,-0.07,0.02,0.07,-10.15,-0.45
2341850,1.00,0.01,-0.07,0.02,-0.16,-9.95,-0.50
2341882,1.00,0.01,-0.07,0.02,-0.21,-10.21,-0.40
2341915,1.00,0.01,-0.06,0.02,-0.36,-10.16,-0.29
2341948,1.00,0.01,-0.06,0.02,-0.32,-9.99,-0.18
2341980,1.00,0.02,-0.06,0.02,-0.34,-10.02,-0.12
2342012,1.00,0.02,-0.06,0.01,-0.31,-10.08,-0.06
2342044,1.00,0.02,-0.05,0.01,-0.30,-9.96,0.04
2342076,1.00,0.02,-0.05,0.01,-0.30,-9.92,0.12
2342109,1.00,0.03,-0.05,0.01,-0.32,-10.03,0.21
2342142,1.00,0.03,-0.05,0.02,-0.69,-10.16,0.31
2342175,1.00,0.03,-0.05,0.02,-1.00,-10.07,0.26
2342208,1.00,0.03,-0.06,0.02,-0.47,-9.93,0.34
2342241,1.00,0.03,-0.06,0.02,-0.72,-10.00,0.46
2342274,1.00,0.03,-0.05,0.02,-0.68,-9.75,0.55
2342307,1.00,0.03,-0.05,0.02,-0.58,-9.79,0.67
2342340,1.00,0.03,-0.05,0.02,-0.72,-9.80,0.55
2342373,1.00,0.02,-0.04,0.02,-0.78,-10.16,0.54
2342406,1.00,0.02,-0.04,0.02,-0.71,-9.96,0.46
2342439,1.00,0.02,-0.04,0.02,-0.71,-10.05,0.46
2342472,1.00,0.02,-0.03,0.02,-0.71,-9.99,0.49
2342505,1.00,0.01,-0.03,0.02,-0.65,-9.99,0.47
2342538,1.00,0.01,-0.02,0.02,-0.54,-10.04,0.42
2342571,1.00,0.01,-0.02,0.02,-0.45,-10.02,0.40
2342604,1.00,0.00,-0.01,0.02,-0.22,-9.99,0.42
2342637,1.00,-0.00,-0.00,0.02,-0.02,-9.93,0.38
2342670,1.00,-0.01,0.01,0.01,-0.12,-10.00,0.36
2342703,1.00,-0.01,0.01,0.01,0.05,-10.07,0.30
2342736,1.00,-0.01,0.01,0.00,0.26,-10.15,0.20
2342769,1.00,-0.02,0.00,-0.00,0.22,-10.11,0.12
2342801,1.00,-0.02,0.00,-0.01,0.03,-9.90,0.11
2342833,1.00,-0.02,0.00,-0.01,-0.04,-9.75,0.11
2342865,1.00,-0.02,0.00,-0.02,-0.21,-9.95,0.00
2342897,1.00,-0.02,0.01,-0.02,-0.28,-9.97,-0.07
2342929,1.00,-0.02,0.01,-0.02,-0.30,-9.95,-0.22
2342961,1.00,-0.03,0.02,-0.02,-0.29,-9.93,-0.37
2342994,1.00,-0.03,0.03,-0.02,-0.09,-9.70,-0.66
2343026,1.00,-0.03,0.04,-0.03,0.45,-9.67,-0.81
2343058,1.00,-0.04,0.05,-0.03,0.76,-9.97,-0.94
2343090,1.00,-0.04,0.06,-0.03,1.36,-9.96,-1.11
2343122,1.00,-0.05,0.06,-0.03,1.91,-10.07,-1.19
2343154,1.00,-0.05,0.07,-0.04,2.01,-9.92,-1.30
2343187,0.99,-0.06,0.07,-0.06,1.97,-9.71,-1.43
2343219,0.99,-0.06,0.08,-0.07,1.75,-10.07,-1.54
2343251,0.99,-0.07,0.08,-0.09,1.80,-9.92,-1.59
2343283,0.99,-0.07,0.09,-0.10,1.89,-9.94,-1.66
2343315,0.99,-0.07,0.09,-0.11,2.18,-10.06,-1.67
2343348,0.99,-0.07,0.09,-0.12,2.59,-9.64,-1.65
2343381,0.99,-0.07,0.09,-0.13,3.01,-9.59,-1.62
2343414,0.99,-0.07,0.09,-0.13,3.05,-9.60,-1.57
2343447,0.98,-0.07,0.08,-0.14,3.08,-9.67,-1.47
2343480,0.98,-0.06,0.08,-0.14,2.94,-9.63,-1.51
2343513,0.98,-0.06,0.07,-0.15,2.73,-9.69,-1.42
2343545,0.99,-0.06,0.06,-0.15,2.68,-9.71,-1.30
2343578,0.99,-0.05,0.06,-0.14,2.71,-9.72,-1.15
2343611,0.99,-0.05,0.05,-0.14,2.77,-9.89,-1.01
2343643,0.99,-0.05,0.04,-0.14,2.61,-9.93,-0.87
2343676,0.99,-0.04,0.02,-0.14,2.31,-9.96,-0.74
2343709,0.99,-0.03,0.01,-0.14,2.03,-9.80,-0.63
2343742,0.99,-0.03,-0.00,-0.13,1.68,-9.73,-0.55
2343775,0.99,-0.02,-0.01,-0.13,1.29,-9.86,-0.49
2343807,0.99,-0.02,-0.02,-0.12,0.98,-9.84,-0.43
2343839,0.99,-0.01,-0.03,-0.12,0.66,-9.88,-0.35
2343872,0.99,-0.01,-0.04,-0.11,0.54,-9.89,-0.33
2343905,0.99,-0.01,-0.05,-0.09,0.54,-9.77,-0.25
2343938,1.00,-0.01,-0.05,-0.08,0.59,-9.83,-0.23
2343971,1.00,-0.01,-0.06,-0.06,0.48,-9.87,-0.20
2344004,1.00,-0.01,-0.06,-0.05,0.48,-9.94,-0.16
2344037,1.00,-0.01,-0.06,-0.04,0.40,-10.01,-0.11
2344069,1.00,-0.01,-0.06,-0.02,0.39,-10.11,-0.14
2344101,1.00,-0.00,-0.06,-0.02,0.43,-10.10,-0.13
2344134,1.00,-0.00,-0.05,-0.01,0.46,-10.00,-0.12
2344167,1.00,-0.00,-0.05,-0.00,0.35,-10.01,-0.11
2344200,1.00,-0.00,-0.05,0.00,0.21,-9.99,-0.15
2344233,1.00,0.00,-0.04,0.01,0.11,-9.99,-0.14
2344266,1.00,0.00,-0.04,0.01,0.06,-9.94,-0.14
2344299,1.00,0.00,-0.03,0.01,0.05,-9.96,-0.17
2344331,1.00,0.00,-0.02,0.02,0.17,-9.91,-0.18
2344363,1.00,0.00,-0.01,0.02,0.27,-9.91,-0.16
2344396,1.00,0.00,-0.00,0.02,0.36,-9.81,-0.12
2344429,1.00,0.00,0.01,0.03,0.80,-9.84,-0.17
2344462,1.00,0.00,0.02,0.03,0.97,-9.95,-0.19
2344495,1.00,0.00,0.03,0.04,1.26,-9.98,-0.27
2344528,1.00,-0.00,0.04,0.05,1.82,-9.82,-0.34
2344561,1.00,-0.00,0.04,0.05,2.52,-9.89,-0.43
2344594,1.00,-0.00,0.04,0.06,2.83,-9.93,-0.53
2344627,1.00,-0.01,0.04,0.07,2.89,-10.01,-0.66
2344660,1.00,-0.01,0.03,0.07,2.78,-10.28,-0.74
2344693,1.00,-0.00,0.01,0.06,2.42,-10.23,-0.81
2344726,1.00,-0.00,-0.00,0.06,2.30,-9.55,-0.85
2344759,1.00,0.00,-0.01,0.05,1.85,-9.65,-0.91
2344792,1.00,0.00,-0.02,0.04,1.56,-9.83,-0.89
2344825,1.00,0.01,-0.02,0.03,1.32,-10.21,-0.70
2344858,1.00,0.01,-0.02,0.03,1.46,-9.94,-0.61
2344891,1.00,0.02,-0.03,0.02,1.50,-10.04,-0.55
2344924,1.00,0.02,-0.04,0.02,1.35,-9.86,-0.51
2344957,1.00,0.02,-0.04,0.01,1.22,-10.12,-0.40
2344990,1.00,0.02,-0.05,0.01,1.16,-10.16,-0.34
2345023,1.00,0.03,-0.06,0.01,1.07,-10.18,-0.26
2345056,1.00,0.03,-0.06,0.00,0.91,-10.05,-0.15
2345089,1.00,0.03,-0.07,0.00,0.73,-10.11,-0.07
2345122,1.00,0.03,-0.07,-0.00,0.53,-10.14,-0.04
2345154,1.00,0.04,-0.08,-0.00,0.34,-10.08,0.11
2345187,1.00,0.04,-0.08,-0.00,0.18,-10.03,0.19
2345220,1.00,0.04,-0.08,-0.00,-0.00,-10.04,0.34
2345253,0.99,0.05,-0.09,-0.00,-0.12,-10.00,0.49
2345286,0.99,0.05,-0.09,-0.00,-0.23,-9.97,0.63
2345319,0.99,0.05,-0.10,0.00,-0.36,-10.04,0.80
2345352,0.99,0.06,-0.10,0.01,-0.50,-9.99,0.89
2345384,0.99,0.06,-0.10,0.01,-0.69,-9.94,1.06
2345416,0.99,0.06,-0.10,0.01,-0.91,-9.76,1.21
2345449,0.99,0.06,-0.10,0.02,-1.01,-9.64,1.38
2345482,0.99,0.06,-0.10,0.03,-0.77,-9.69,1.54
2345515,0.99,0.05,-0.10,0.03,-0.34,-9.65,1.70
2345548,0.99,0.05,-0.09,0.04,0.00,-9.85,1.77
2345581,0.99,0.04,-0.09,0.04,0.28,-9.60,1.83
2345614,0.99,0.04,-0.09,0.03,0.06,-9.65,1.81
2345646,1.00,0.03,-0.09,0.02,-0.28,-9.58,1.67
2345678,1.00,0.01,-0.09,0.01,-0.93,-9.25,1.33
2345710,1.00,-0.00,-0.08,0.00,-2.71,-8.95,1.20
2345742,1.00,-0.02,-0.08,0.01,-3.65,-9.07,0.79
2345774,1.00,-0.04,-0.08,0.03,-2.30,-9.66,-0.33
2345806,0.99,-0.07,-0.07,0.06,-0.67,-9.89,-1.21
2345838,0.99,-0.09,-0.06,0.08,1.20,-10.03,-1.59
2345871,0.99,-0.11,-0.05,0.09,2.42,-10.01,-1.81
2345903,0.99,-0.12,-0.04,0.08,3.08,-10.38,-2.41
2345935,0.99,-0.13,-0.03,0.05,2.51,-10.00,-2.87
2345967,0.99,-0.14,-0.02,0.01,1.85,-9.48,-3.09
2345999,0.99,-0.15,-0.02,-0.03,-0.03,-9.82,-3.32
2346032,0.99,-0.15,-0.02,-0.05,-3.09,-10.18,-3.30
2346064,0.99,-0.16,-0.02,-0.04,-4.08,-10.59,-3.68
2346097,0.99,-0.16,-0.03,-0.00,0.18,-9.80,-4.04
2346130,0.99,-0.16,-0.03,0.03,3.21,-9.93,-3.57
2346162,0.99,-0.15,-0.03,0.05,4.00,-10.20,-3.06
2346195,0.99,-0.14,-0.03,0.05,3.54,-10.04,-3.00
2346227,0.99,-0.13,-0.04,0.03,1.64,-9.91,-3.07
2346259,0.99,-0.12,-0.04,0.01,-0.94,-9.81,-2.89
2346291,0.99,-0.10,-0.04,0.00,-1.12,-9.57,-2.49
2346323,0.99,-0.09,-0.05,0.01,-0.45,-9.64,-2.13
2346355,1.00,-0.08,-0.06,0.01,0.30,-9.52,-1.84
2346388,1.00,-0.07,-0.06,0.02,0.86,-9.53,-1.55
2346420,1.00,-0.06,-0.07,0.02,0.93,-9.91,-1.40
2346452,1.00,-0.05,-0.08,0.02,0.58,-10.11,-1.35
2346484,1.00,-0.04,-0.08,0.01,-0.08,-10.25,-1.34
2346516,1.00,-0.02,-0.09,0.00,-0.50,-10.02,-1.30
2346548,1.00,-0.01,-0.09,-0.00,-0.93,-9.64,-1.15
2346580,0.99,-0.00,-0.10,-0.01,-1.04,-9.76,-0.93
2346613,0.99,0.01,-0.11,-0.01,-1.26,-9.74,-0.69
2346645,0.99,0.02,-0.11,-0.01,-1.52,-9.68,-0.39
2346677,0.99,0.02,-0.12,-0.01,-1.72,-9.87,-0.15
2346709,0.99,0.03,-0.12,-0.01,-1.76,-9.61,0.04
2346741,0.99,0.04,-0.13,-0.00,-1.81,-9.53,0.15
2346773,0.99,0.04,-0.13,-0.00,-2.01,-9.49,0.25
2346805,0.99,0.04,-0.13,0.00,-2.21,-9.58,0.37
2346837,0.99,0.05,-0.13,0.01,-2.47,-9.60,0.47
2346870,0.99,0.05,-0.13,0.01,-2.48,-9.67,0.53
2346902,0.99,0.05,-0.13,0.01,-2.44,-9.61,0.59
2346934,0.99,0.05,-0.12,0.02,-2.30,-9.56,0.63
2346966,0.99,0.05,-0.12,0.02,-2.27,-9.64,0.68
2346999,0.99,0.04,-0.11,0.03,-2.11,-9.61,0.69
2347031,0.99,0.04,-0.10,0.03,-1.75,-9.71,0.71
2347063,0.99,0.04,-0.09,0.04,-1.48,-9.80,0.68
2347095,1.00,0.03,-0.08,0.04,-1.27,-9.68,0.69
2347128,1.00,0.03,-0.07,0.04,-1.01,-9.63,0.64
2347161,1.00,0.02,-0.06,0.03,-0.67,-9.71,0.56
2347193,1.00,0.01,-0.04,0.03,-0.53,-9.89,0.41
2347225,1.00,0.01,-0.03,0.02,-0.66,-10.21,0.24
2347258,1.00,0.00,-0.02,0.02,-0.64,-10.04,0.06
2347291,1.00,-0.01,-0.02,0.01,-0.48,-9.82,-0.10
2347324,1.00,-0.01,-0.01,0.01,-0.35,-9.79,-0.32
2347357,1.00,-0.02,-0.01,0.00,-0.48,-10.27,-0.56
2347389,1.00,-0.02,-0.01,-0.00,-0.44,-10.13,-0.74
2347421,1.00,-0.02,-0.00,-0.00,-0.69,-10.24,-1.10
2347453,1.00,-0.03,-0.00,-0.00,-0.78,-10.26,-1.35
2347485,1.00,-0.03,0.00,0.00,-0.72,-10.11,-1.43
2347517,1.00,-0.02,0.00,0.01,-0.49,-10.32,-1.43
2347549,1.00,-0.02,0.00,0.01,-0.33,-10.23,-1.23
2347581,1.00,-0.01,0.00,0.01,-0.14,-10.39,-1.09
2347613,1.00,-0.01,0.00,0.01,-0.16,-10.30,-0.89
2347645,1.00,0.00,-0.00,0.01,-0.12,-9.97,-0.77
2347677,1.00,0.01,-0.00,0.00,-0.25,-9.89,-0.68
2347709,1.00,0.02,-0.01,-0.00,-0.38,-9.75,-0.61
2347741,1.00,0.02,-0.01,-0.00,-0.87,-10.03,-0.58
2347774,1.00,0.03,-0.01,-0.01,-1.02,-10.16,-0.53
2347807,1.00,0.03,-0.01,-0.00,-1.11,-10.22,-0.46
2347840,1.00,0.04,-0.02,-0.00,-1.01,-10.03,-0.33
2347873,1.00,0.04,-0.02,0.00,-0.96,-9.87,-0.25
2347906,1.00,0.04,-0.03,0.01,-1.13,-9.88,-0.13
2347939,1.00,0.05,-0.03,0.01,-1.38,-9.97,-0.04
2347971,1.00,0.05,-0.04,0.01,-1.59,-9.93,0.12
2348003,1.00,0.06,-0.04,0.02,-1.84,-9.93,0.31
2348036,1.00,0.06,-0.05,0.02,-2.05,-9.90,0.44
2348069,1.00,0.07,-0.05,0.02,-2.17,-9.69,0.72
2348102,1.00,0.07,-0.05,0.03,-2.27,-9.67,0.89
2348135,1.00,0.08,-0.05,0.03,-2.28,-9.70,1.07
2348168,1.00,0.08,-0.04,0.04,-2.23,-9.75,1.23
2348201,0.99,0.08,-0.04,0.04,-2.16,-9.64,1.49
2348234,0.99,0.09,-0.04,0.05,-2.12,-9.61,1.64
2348267,0.99,0.09,-0.03,0.05,-2.09,-9.56,1.76
2348300,0.99,0.09,-0.03,0.06,-2.10,-9.47,1.89
2348333,0.99,0.09,-0.03,0.06,-2.08,-9.39,1.98
2348366,0.99,0.09,-0.03,0.06,-2.04,-9.55,2.06
2348399,0.99,0.09,-0.02,0.07,-1.94,-9.59,2.10
2348432,0.99,0.09,-0.02,0.07,-1.78,-9.66,2.13
2348465,0.99,0.09,-0.02,0.08,-1.63,-9.71,2.12
2348497,0.99,0.08,-0.01,0.08,-1.50,-9.66,2.09
2348529,0.99,0.08,-0.01,0.08,-1.46,-9.83,2.05
2348562,0.99,0.08,-0.01,0.08,-1.25,-9.68,2.02
2348594,0.99,0.07,-0.01,0.08,-1.25,-9.65,2.02
2348627,0.99,0.07,-0.01,0.08,-1.46,-9.71,2.02
2348660,0.99,0.07,-0.01,0.08,-1.67,-9.64,2.01
2348693,0.99,0.06,-0.01,0.08,-1.77,-9.70,2.04
2348726,1.00,0.06,-0.01,0.08,-1.78,-9.63,2.13
2348758,1.00,0.05,-0.01,0.08,-2.07,-9.83,2.15
2348790,1.00,0.05,-0.00,0.08,-2.31,-9.63,2.10
2348823,1.00,0.04,0.00,0.08,-2.08,-9.12,2.14
2348856,1.00,0.04,0.02,0.08,-1.61,-9.06,2.22
2348889,1.00,0.02,0.03,0.08,-1.11,-9.28,2.12
2348921,1.00,0.01,0.04,0.09,-0.66,-9.56,1.92
2348954,0.99,-0.00,0.06,0.08,-0.33,-9.82,1.60
2348987,0.99,-0.02,0.08,0.08,0.13,-9.75,1.23
2349019,0.99,-0.03,0.09,0.08,0.34,-10.04,1.00
2349051,0.99,-0.04,0.10,0.08,0.62,-10.00,0.67
2349084,0.99,-0.06,0.11,0.08,0.99,-9.98,0.37
2349117,0.99,-0.07,0.12,0.07,1.32,-10.05,0.13
2349150,0.99,-0.08,0.12,0.07,1.46,-10.04,-0.11
2349183,0.99,-0.09,0.13,0.06,1.68,-9.98,-0.36
2349216,0.98,-0.10,0.13,0.06,1.78,-10.05,-0.59
2349249,0.98,-0.11,0.13,0.05,1.90,-10.19,-0.78
2349282,0.98,-0.11,0.13,0.05,2.02,-10.12,-0.91
2349315,0.98,-0.12,0.13,0.04,2.11,-9.97,-1.01
2349348,0.98,-0.12,0.13,0.04,2.08,-9.94,-1.09
2349381,0.98,-0.13,0.13,0.03,2.10,-10.11,-1.18
2349414,0.98,-0.13,0.12,0.03,2.12,-10.27,-1.23
2349447,0.99,-0.13,0.11,0.03,2.18,-10.01,-1.25
2349480,0.99,-0.12,0.11,0.03,2.02,-9.73,-1.20
2349513,0.99,-0.12,0.10,0.02,1.71,-9.81,-1.11
2349546,0.99,-0.12,0.09,0.02,1.50,-9.96,-1.06
2349579,0.99,-0.12,0.09,0.02,1.39,-10.03,-1.06
2349612,0.99,-0.11,0.08,0.02,1.35,-10.01,-1.00
2349645,0.99,-0.11,0.07,0.02,1.21,-9.96,-0.89
2349678,0.99,-0.10,0.07,0.02,1.07,-10.01,-0.84
2349711,0.99,-0.10,0.06,0.02,1.09,-10.02,-0.78
2349744,0.99,-0.09,0.05,0.03,0.78,-9.92,-0.76
2349777,0.99,-0.09,0.04,0.03,0.79,-9.84,-0.71
2349809,1.00,-0.09,0.04,0.03,0.62,-9.90,-0.67
2349841,1.00,-0.08,0.03,0.03,0.58,-9.98,-0.66
2349874,1.00,-0.08,0.02,0.03,0.43,-9.97,-0.63
2349907,1.00,-0.07,0.02,0.03,0.37,-9.96,-0.59
2349939,1.00,-0.07,0.02,0.03,0.34,-9.93,-0.50
2349972,1.00,-0.06,0.01,0.03,0.23,-9.95,-0.48
2350005,1.00,-0.06,0.01,0.03,0.27,-9.95,-0.45
2350038,1.00,-0.05,0.01,0.03,0.22,-9.95,-0.44
2350070,1.00,-0.05,0.01,0.03,0.28,-9.95,-0.43
2350102,1.00,-0.05,0.01,0.03,0.31,-9.98,-0.44
2350135,1.00,-0.04,0.01,0.03,0.35,-9.99,-0.47
2350168,1.00,-0.04,0.01,0.03,0.34,-10.02,-0.50
2350200,1.00,-0.04,0.01,0.03,0.40,-9.98,-0.49
2350232,1.00,-0.04,0.01,0.03,0.37,-9.97,-0.51
2350265,1.00,-0.03,0.01,0.03,0.32,-9.99,-0.55
2350297,1.00,-0.03,0.01,0.03,0.35,-10.05,-0.54
2350329,1.00,-0.03,0.01,0.03,0.48,-10.01,-0.57
2350361,1.00,-0.03,0.01,0.03,0.57,-9.96,-0.59
2350393,1.00,-0.03,0.01,0.03,0.59,-9.97,-0.61
2350425,1.00,-0.03,0.01,0.03,0.57,-10.03,-0.63
2350457,1.00,-0.02,0.01,0.03,0.67,-10.09,-0.66
2350489,1.00,-0.02,0.01,0.03,0.75,-10.11,-0.71
2350521,1.00,-0.02,0.01,0.03,0.79,-9.98,-0.70
2350554,1.00,-0.02,0.00,0.03,0.78,-9.96,-0.71
2350586,1.00,-0.02,0.00,0.03,0.66,-9.93,-0.72
2350618,1.00,-0.01,0.00,0.03,0.61,-9.93,-0.73
2350651,1.00,-0.01,0.00,0.03,0.53,-10.05,-0.75
2350683,1.00,-0.01,0.00,0.02,0.66,-10.14,-0.78
2350715,1.00,-0.01,-0.00,0.02,0.81,-10.05,-0.80
2350747,1.00,-0.00,-0.00,0.02,0.76,-9.97,-0.78
2350779,1.00,-0.00,-0.01,0.02,0.68,-9.93,-0.78
2350811,1.00,0.00,-0.01,0.02,0.64,-9.93,-0.74
2350843,1.00,0.00,-0.01,0.02,0.61,-9.96,-0.73
2350875,1.00,0.01,-0.01,0.02,0.69,-9.98,-0.75
2350907,1.00,0.01,-0.01,0.02,0.76,-10.00,-0.74
2350939,1.00,0.01,-0.01,0.02,0.79,-10.00,-0.71
2350971,1.00,0.01,-0.01,0.02,0.78,-9.97,-0.72
2351003,1.00,0.02,-0.02,0.02,0.74,-9.98,-0.73
2351035,1.00,0.02,-0.02,0.01,0.72,-9.98,-0.74
2351067,1.00,0.02,-0.02,0.01,0.70,-9.96,-0.75
2351099,1.00,0.02,-0.02,0.01,0.69,-9.94,-0.76
2351131,1.00,0.02,-0.02,0.01,0.68,-9.96,-0.76
2351169,1.00,0.03,-0.02,0.01,0.71,-9.99,-0.77
2351202,1.00,0.03,-0.03,0.01,0.75,-10.04,-0.77
2351235,1.00,0.03,-0.03,0.01,0.82,-9.99,-0.79
2351267,1.00,0.03,-0.03,0.01,0.85,-9.92,-0.78
2351300,1.00,0.03,-0.03,0.01,0.89,-9.98,-0.80
2351333,1.00,0.03,-0.04,0.01,0.89,-9.99,-0.77
2351365,1.00,0.04,-0.04,0.00,0.88,-9.97,-0.78
2351397,1.00,0.04,-0.04,0.00,0.86,-9.98,-0.76
2351430,1.00,0.04,-0.04,0.00,0.85,-9.95,-0.80
2351463,1.00,0.04,-0.04,0.00,0.87,-9.96,-0.79
2351496,1.00,0.04,-0.05,0.00,0.90,-10.01,-0.80
2351529,1.00,0.04,-0.05,0.00,0.91,-9.95,-0.78
2351562,1.00,0.04,-0.05,0.00,0.94,-9.95,-0.80
2351595,1.00,0.04,-0.04,0.00,0.90,-9.98,-0.80
2351628,1.00,0.04,-0.05,0.00,0.90,-9.99,-0.81
2351661,1.00,0.04,-0.04,0.00,0.89,-9.96,-0.78
2351694,1.00,0.04,-0.04,0.00,0.90,-9.96,-0.80
2351727,1.00,0.04,-0.05,0.00,0.99,-9.96,-0.79
2351760,1.00,0.04,-0.05,0.00,1.02,-9.94,-0.82
2351793,1.00,0.04,-0.05,0.00,0.98,-9.98,-0.80
2351826,1.00,0.04,-0.05,0.00,1.00,-9.96,-0.83
2351859,1.00,0.04,-0.05,0.00,1.03,-9.93,-0.82
2351892,1.00,0.04,-0.05,0.00,1.05,-9.93,-0.80
2351925,1.00,0.04,-0.05,0.00,1.05,-9.98,-0.81
2351958,1.00,0.04,-0.05,0.00,1.07,-9.96,-0.80
2351991,1.00,0.04,-0.05,0.00,1.03,-9.94,-0.81
2352024,1.00,0.04,-0.05,0.00,1.02,-9.96,-0.83
2352057,1.00,0.04,-0.05,0.00,1.03,-9.97,-0.82
2352090,1.00,0.04,-0.05,0.00,1.02,-9.97,-0.83
2352123,1.00,0.04,-0.05,0.00,1.02,-9.93,-0.83
2352156,1.00,0.04,-0.05,0.00,1.03,-9.90,-0.84
2352189,1.00,0.04,-0.05,0.00,1.04,-9.97,-0.84
2352222,1.00,0.04,-0.05,0.00,1.06,-9.96,-0.87
2352255,1.00,0.04,-0.05,0.00,1.06,-9.97,-0.82
2352288,1.00,0.04,-0.05,0.00,1.05,-9.95,-0.83
2352321,1.00,0.04,-0.05,0.00,1.04,-9.91,-0.82
2352354,1.00,0.04,-0.05,0.00,1.06,-9.94,-0.83
2352387,1.00,0.04,-0.05,0.00,1.05,-9.96,-0.84
2352419,1.00,0.04,-0.05,0.00,1.06,-9.94,-0.83
2352451,1.00,0.04,-0.05,0.00,1.07,-9.95,-0.82
2352483,1.00,0.04,-0.05,0.00,1.10,-9.94,-0.85
2352516,1.00,0.04,-0.06,0.00,1.12,-9.96,-0.86
2352549,1.00,0.04,-0.06,0.00,1.14,-9.95,-0.85
2352582,1.00,0.04,-0.06,0.00,1.14,-9.93,-0.85
2352615,1.00,0.04,-0.06,0.00,1.14,-9.93,-0.84
2352648,1.00,0.04,-0.06,0.00,1.13,-9.96,-0.84
2352680,1.00,0.04,-0.06,0.00,1.12,-9.95,-0.85
2352712,1.00,0.04,-0.06,0.00,1.15,-9.94,-0.85
2352745,1.00,0.04,-0.06,0.00,1.14,-9.97,-0.87
2352778,1.00,0.04,-0.06,0.00,1.12,-9.94,-0.86
2352811,1.00,0.04,-0.06,0.00,1.12,-9.93,-0.86
2352844,1.00,0.04,-0.05,0.00,1.09,-9.94,-0.86
2352877,1.00,0.04,-0.05,0.00,1.06,-9.95,-0.86
2352910,1.00,0.04,-0.05,0.00,1.10,-9.94,-0.87
2352942,1.00,0.04,-0.06,0.00,1.11,-9.94,-0.87
2352975,1.00,0.04,-0.06,0.00,1.16,-9.92,-0.87
2353008,1.00,0.04,-0.06,0.00,1.17,-9.98,-0.88
2353041,1.00,0.04,-0.06,0.00,1.16,-9.94,-0.89
2353074,1.00,0.05,-0.06,0.00,1.17,-9.91,-0.90
2353107,1.00,0.05,-0.06,0.00,1.16,-9.93,-0.91
2353140,1.00,0.05,-0.06,0.00,1.17,-9.96,-0.92
2353173,1.00,0.04,-0.06,0.00,1.19,-9.95,-0.87
2353205,1.00,0.05,-0.06,0.00,1.17,-9.96,-0.89
2353237,1.00,0.04,-0.06,0.00,1.17,-9.95,-0.87
2353270,1.00,0.05,-0.06,0.00,1.17,-9.93,-0.89
2353303,1.00,0.05,-0.06,0.00,1.14,-9.96,-0.90
2353336,1.00,0.04,-0.06,0.00,1.12,-9.93,-0.89
2353368,1.00,0.05,-0.06,0.00,1.10,-9.93,-0.90
2353401,1.00,0.04,-0.05,0.00,1.09,-9.97,-0.90
2353434,1.00,0.05,-0.05,0.00,1.06,-9.95,-0.89
2353466,1.00,0.04,-0.05,0.00,1.06,-9.96,-0.88
2353498,1.00,0.04,-0.05,0.00,1.06,-9.94,-0.86
2353531,1.00,0.04,-0.05,0.00,1.05,-9.92,-0.87
2353564,1.00,0.04,-0.05,0.00,1.07,-9.95,-0.87
2353597,1.00,0.04,-0.05,0.00,1.05,-9.92,-0.85
2353630,1.00,0.05,-0.05,0.00,1.04,-9.94,-0.89
2353663,1.00,0.04,-0.05,0.00,1.03,-9.93,-0.88
2353696,1.00,0.05,-0.05,0.00,1.03,-9.93,-0.89
2353728,1.00,0.04,-0.05,0.00,1.04,-9.96,-0.89
2353760,1.00,0.05,-0.05,0.00,1.06,-9.96,-0.91
2353793,1.00,0.04,-0.05,0.00,1.08,-9.96,-0.89
2353826,1.00,0.05,-0.05,0.00,1.08,-9.95,-0.90
2353859,1.00,0.04,-0.06,0.00,1.10,-9.92,-0.88
2353892,1.00,0.04,-0.05,0.00,1.08,-9.99,-0.89
2353925,1.00,0.04,-0.05,0.00,1.07,-9.92,-0.88
2353958,1.00,0.05,-0.05,0.00,1.06,-9.91,-0.91
2353991,1.00,0.05,-0.05,0.00,1.10,-9.95,-0.91
2354024,1.00,0.04,-0.05,0.00,1.10,-9.96,-0.89
2354057,1.00,0.04,-0.06,0.00,1.12,-9.94,-0.86
2354090,1.00,0.05,-0.06,0.00,1.12,-9.92,-0.90
2354122,1.00,0.04,-0.05,0.00,1.11,-9.94,-0.90
2354155,1.00,0.05,-0.05,0.00,1.08,-9.94,-0.89
2354188,1.00,0.04,-0.05,0.00,1.04,-9.95,-0.88
2354221,1.00,0.04,-0.05,0.00,1.03,-9.94,-0.87
2354254,1.00,0.04,-0.05,0.00,1.02,-9.93,-0.87
2354286,1.00,0.04,-0.05,0.00,1.07,-10.00,-0.89
2354318,1.00,0.04,-0.05,0.00,1.12,-10.05,-0.85
2354351,1.00,0.04,-0.06,0.00,1.26,-9.97,-0.84
2354384,1.00,0.04,-0.06,0.00,1.30,-9.77,-0.89
2354417,1.00,0.04,-0.06,0.00,1.24,-9.78,-0.94
2354450,1.00,0.05,-0.06,0.00,1.22,-9.90,-1.00
2354483,1.00,0.05,-0.06,0.00,1.10,-9.92,-1.03
2354516,1.00,0.05,-0.06,-0.00,1.01,-9.74,-1.08
2354549,1.00,0.05,-0.06,-0.00,0.89,-9.89,-1.07
2354582,1.00,0.05,-0.06,-0.00,0.80,-10.04,-1.10
2354615,1.00,0.05,-0.05,-0.00,0.80,-9.94,-1.06
2354648,1.00,0.05,-0.05,-0.00,0.95,-9.83,-1.07
2354681,1.00,0.05,-0.05,-0.00,1.07,-9.91,-1.04
2354714,1.00,0.05,-0.05,0.00,1.14,-9.99,-1.01
2354747,1.00,0.05,-0.05,0.00,1.22,-9.94,-0.99
2354779,1.00,0.05,-0.05,0.00,1.27,-9.89,-0.97
2354811,1.00,0.05,-0.05,0.00,1.36,-9.80,-0.96
2354844,1.00,0.05,-0.06,0.00,1.38,-9.78,-0.93
2354877,1.00,0.05,-0.06,-0.00,1.42,-9.79,-1.00
2354910,1.00,0.05,-0.06,-0.00,1.64,-9.65,-1.01
2354943,1.00,0.04,-0.05,-0.01,1.71,-9.64,-1.06
2354976,1.00,0.04,-0.05,-0.02,1.74,-9.76,-1.11
2355009,1.00,0.04,-0.05,-0.02,1.71,-9.88,-1.18
2355042,1.00,0.04,-0.04,-0.03,1.80,-9.76,-1.30
2355074,1.00,0.04,-0.04,-0.04,1.97,-9.67,-1.30
2355107,1.00,0.03,-0.04,-0.05,2.06,-9.59,-1.39
2355140,1.00,0.03,-0.03,-0.05,2.15,-9.59,-1.43
2355172,1.00,0.03,-0.03,-0.06,2.27,-9.59,-1.46
2355205,1.00,0.03,-0.03,-0.07,2.54,-9.48,-1.47
2355238,1.00,0.02,-0.02,-0.07,2.72,-9.40,-1.52
2355271,1.00,0.02,-0.01,-0.08,2.91,-9.29,-1.58
2355303,1.00,0.02,-0.01,-0.09,3.14,-9.36,-1.63
2355335,0.99,0.01,0.00,-0.10,3.32,-9.40,-1.67
2355368,0.99,0.01,0.01,-0.11,3.46,-9.36,-1.73
2355401,0.99,0.01,0.01,-0.12,3.44,-9.22,-1.75
2355434,0.99,0.01,0.01,-0.12,3.46,-9.12,-1.81
2355467,0.99,0.01,0.02,-0.12,3.63,-9.07,-1.91
2355500,0.99,0.00,0.02,-0.12,4.10,-9.08,-1.98
2355533,0.99,0.00,0.02,-0.12,4.48,-9.02,-1.95
2355565,0.99,0.00,0.02,-0.12,4.67,-9.03,-2.00
2355597,0.99,0.00,0.01,-0.12,4.42,-9.06,-2.01
2355630,0.99,0.00,0.01,-0.12,4.25,-9.13,-2.08
2355663,0.99,0.00,0.00,-0.11,3.64,-9.39,-2.06
2355696,0.99,0.01,-0.01,-0.11,3.31,-9.28,-2.21
2355729,1.00,0.01,-0.02,-0.09,3.38,-9.09,-2.26
2355762,1.00,0.02,-0.03,-0.07,4.03,-8.96,-2.30
2355795,1.00,0.02,-0.04,-0.05,4.74,-9.01,-2.08
2355827,1.00,0.02,-0.06,-0.04,4.77,-9.18,-1.94
2355859,1.00,0.03,-0.07,-0.04,4.14,-9.35,-1.83
2355892,1.00,0.03,-0.08,-0.05,3.24,-9.40,-1.83
2355925,0.99,0.04,-0.08,-0.05,2.09,-9.51,-1.84
2355958,0.99,0.05,-0.09,-0.05,1.36,-9.41,-1.80
2355991,0.99,0.05,-0.09,-0.05,1.21,-9.44,-1.72
2356024,0.99,0.06,-0.10,-0.03,1.39,-9.47,-1.64
2356056,0.99,0.06,-0.10,-0.02,1.84,-9.48,-1.60
2356088,0.99,0.06,-0.11,-0.01,2.37,-9.57,-1.53
2356120,0.99,0.07,-0.12,0.00,2.90,-9.84,-1.44
2356153,0.99,0.07,-0.12,0.01,2.91,-9.68,-1.41
2356186,0.99,0.07,-0.13,0.00,2.45,-9.66,-1.37
2356219,0.99,0.08,-0.13,-0.00,1.93,-9.72,-1.41
2356252,0.99,0.08,-0.13,-0.01,1.20,-9.76,-1.37
2356285,0.99,0.08,-0.13,-0.02,0.94,-9.79,-1.37
2356318,0.99,0.08,-0.13,-0.02,0.92,-9.81,-1.31
2356351,0.99,0.08,-0.13,-0.01,1.13,-9.68,-1.23
2356384,0.99,0.08,-0.13,-0.01,1.35,-9.71,-1.18
2356417,0.99,0.08,-0.12,-0.00,1.68,-9.61,-1.15
2356450,0.99,0.08,-0.12,0.01,1.73,-9.66,-1.14
2356483,0.99,0.08,-0.12,0.01,1.66,-9.94,-1.16
2356516,0.99,0.08,-0.11,0.01,1.66,-9.99,-1.17
2356549,0.99,0.08,-0.11,0.01,1.57,-9.92,-1.10
2356582,0.99,0.08,-0.11,0.01,1.40,-9.99,-1.10
2356615,0.99,0.08,-0.12,0.01,1.35,-9.99,-1.05
2356648,0.99,0.08,-0.12,0.02,1.30,-9.90,-1.01
2356681,0.99,0.08,-0.13,0.02,1.13,-9.71,-0.94
2356714,0.99,0.08,-0.13,0.02,1.05,-9.82,-0.94
2356747,0.99,0.08,-0.13,0.02,0.89,-9.95,-0.91
2356780,0.99,0.08,-0.13,0.02,0.68,-9.96,-0.89
2356813,0.99,0.08,-0.14,0.02,0.54,-10.06,-0.89
2356846,0.99,0.08,-0.14,0.02,0.49,-10.02,-0.83
2356879,0.99,0.08,-0.14,0.02,0.33,-10.05,-0.73
2356912,0.99,0.09,-0.14,0.02,0.31,-9.82,-0.71
2356945,0.99,0.09,-0.14,0.02,0.22,-9.82,-0.66
2356978,0.99,0.08,-0.14,0.02,0.14,-9.89,-0.66
2357011,0.99,0.08,-0.13,0.02,0.13,-9.95,-0.76
2357043,0.99,0.08,-0.13,0.02,0.17,-9.98,-0.83
2357076,0.99,0.08,-0.13,0.02,0.14,-9.98,-0.72
2357109,0.99,0.08,-0.12,0.02,0.19,-9.81,-0.68
2357141,0.99,0.08,-0.11,0.02,0.34,-9.83,-0.71
2357173,0.99,0.08,-0.09,0.02,0.46,-10.05,-0.70
2357206,0.99,0.07,-0.08,0.02,0.45,-10.17,-0.66
2357238,1.00,0.07,-0.07,0.02,1.11,-9.32,-0.79
2357271,1.00,0.06,-0.05,0.02,1.34,-9.60,-0.92
2357304,1.00,0.05,-0.04,0.02,1.43,-9.96,-0.98
2357337,1.00,0.05,-0.03,0.02,1.53,-10.28,-0.98
2357370,1.00,0.05,-0.02,0.02,1.81,-10.23,-1.03
2357402,1.00,0.05,-0.02,0.02,2.34,-9.52,-1.09
2357434,1.00,0.05,-0.02,0.02,2.38,-9.69,-1.13
2357467,1.00,0.05,-0.03,0.03,2.74,-9.60,-1.22
2357500,1.00,0.05,-0.03,0.03,3.10,-9.41,-1.22
2357533,1.00,0.05,-0.03,0.03,3.32,-9.52,-1.31
2357566,1.00,0.05,-0.03,0.03,3.27,-9.54,-1.35
2357599,1.00,0.05,-0.03,0.02,3.05,-9.59,-1.12
2357632,1.00,0.05,-0.03,0.02,2.88,-10.05,-1.13
2357664,1.00,0.05,-0.04,0.02,2.93,-9.72,-1.06
2357696,1.00,0.06,-0.04,0.02,2.78,-9.71,-1.01
2357729,1.00,0.06,-0.05,0.02,2.63,-10.11,-0.98
2357762,1.00,0.06,-0.06,0.02,2.57,-10.03,-0.89
2357795,1.00,0.07,-0.07,0.02,2.47,-9.79,-0.86
2357828,0.99,0.07,-0.08,0.02,2.24,-9.52,-0.78
2357861,0.99,0.07,-0.09,0.01,1.95,-9.64,-0.70
2357894,0.99,0.07,-0.09,0.01,1.73,-9.70,-0.69
2357926,0.99,0.07,-0.10,0.01,1.50,-9.65,-0.63
2357959,0.99,0.07,-0.10,0.01,1.34,-9.82,-0.60
2357992,0.99,0.06,-0.10,0.01,1.26,-9.91,-0.55
2358025,0.99,0.06,-0.10,0.01,1.21,-9.95,-0.43
2358058,0.99,0.06,-0.10,0.01,1.24,-9.87,-0.43
2358091,0.99,0.06,-0.10,0.01,1.30,-9.89,-0.37
2358124,0.99,0.06,-0.10,0.01,1.39,-9.82,-0.34
2358157,0.99,0.05,-0.09,0.02,1.48,-9.85,-0.37
2358189,0.99,0.05,-0.09,0.02,1.50,-9.80,-0.42
2358221,1.00,0.05,-0.09,0.01,1.53,-9.89,-0.47
2358254,1.00,0.04,-0.08,0.01,1.54,-9.94,-0.54
2358287,1.00,0.04,-0.08,0.01,1.53,-9.93,-0.56
2358320,1.00,0.03,-0.08,0.01,1.52,-9.92,-0.62
2358353,1.00,0.03,-0.08,0.01,1.56,-9.89,-0.66
2358386,1.00,0.03,-0.08,0.01,1.62,-9.91,-0.71
2358419,1.00,0.03,-0.08,0.00,1.64,-9.89,-0.75
2358451,1.00,0.03,-0.08,0.00,1.60,-9.89,-0.75
2358483,1.00,0.04,-0.08,0.00,1.67,-9.90,-0.80
2358516,1.00,0.04,-0.08,0.00,1.73,-9.81,-0.82
2358549,1.00,0.04,-0.08,-0.00,1.79,-9.86,-0.84
2358582,1.00,0.04,-0.08,-0.00,1.92,-9.82,-0.88
2358615,1.00,0.04,-0.08,-0.00,1.93,-9.88,-0.88
2358648,1.00,0.04,-0.08,-0.00,1.96,-9.88,-0.90
2358681,1.00,0.04,-0.08,-0.01,2.06,-9.74,-0.89
2358713,1.00,0.04,-0.08,-0.01,2.21,-9.59,-0.88
2358746,1.00,0.04,-0.08,-0.01,2.40,-9.49,-0.84
2358779,1.00,0.03,-0.07,-0.02,2.65,-9.38,-0.75
2358812,1.00,0.03,-0.06,-0.03,3.02,-9.12,-0.64
2358845,1.00,0.02,-0.05,-0.04,3.33,-9.31,-0.55
2358878,1.00,0.02,-0.03,-0.06,3.83,-9.14,-0.59
2358911,1.00,0.01,-0.02,-0.08,4.00,-8.98,-0.58
2358944,0.99,-0.01,-0.01,-0.11,4.02,-9.05,-0.71
2358977,0.99,-0.02,0.00,-0.13,3.35,-9.35,-1.21
2359010,0.99,-0.03,0.00,-0.15,3.06,-9.37,-1.56
2359043,0.99,-0.04,0.00,-0.15,2.89,-9.33,-2.01
2359076,0.99,-0.05,-0.00,-0.14,2.74,-9.16,-2.41
2359109,0.99,-0.06,-0.01,-0.11,2.80,-9.30,-3.20
2359142,1.00,-0.06,-0.02,-0.08,3.38,-9.37,-3.68
2359175,1.00,-0.06,-0.02,-0.04,4.62,-9.51,-4.01
2359208,1.00,-0.06,-0.03,-0.01,6.24,-9.42,-3.88
